Trial,nBack,Valence,Image,imagePresentationTime,NoisePresentationTime,x,RT,Accuracy,Clock_1,Clock_2,dataOneMinPress_1,dataOneMinPress_2
1,1,0,7130.jpg,0.0142317997788268,0.531839746523474,2.9316167227953,NaN,1,,,,
2,1,0,2312.jpg,2.9433807112855,3.46103605208191,5.35516649500187,NaN,1,,,,
3,1,0,5535.jpg,5.36696067078628,5.88458823927158,5.97870226030409,NaN,1,,,,
4,1,0,5535.jpg,5.99046564504806,6.50812128771759,7.90812919678865,0.894227344134379,1,,,,
5,1,0,9045.jpg,7.91989741149973,8.43754912982149,10.637564404592,NaN,1,,,,
6,1,0,4003.jpg,10.6493286949553,11.1669834320055,13.2611185841433,NaN,1,,,,
7,1,0,4525.jpg,13.2728822707613,13.7905385171762,15.2846634660091,NaN,1,14.225911746842,,,
8,1,0,4525.jpg,15.2964292657362,15.8140852102788,18.2141021755378,NaN,0,,,,
9,1,0,8050.jpg,18.2258676733927,18.7435224104438,19.6376434953027,NaN,1,,,,
10,1,0,7237.jpg,19.6494467272751,20.1670773144906,20.4729497695507,NaN,1,,,,
11,1,0,4000.jpg,20.4847092299469,21.0023666838533,22.8023785776477,NaN,1,,,,
12,1,0,4180.jpg,22.8141434717563,23.3317966994418,24.5318041255168,NaN,1,,,,
13,1,0,2850.jpg,24.5435675102608,25.0612270772781,25.1553365702166,NaN,1,,,,
14,1,0,4530.jpg,25.1671014643252,25.6847580126141,26.778884108563,NaN,1,,,,
15,1,0,6314.jpg,26.7906480970532,27.3083028341043,28.0024216247284,NaN,1,,,,
16,1,0,6314.jpg,28.0141871225833,28.5318436708721,29.5318485008393,0.74126591021377,1,,,,
17,1,0,7830.jpg,29.5436124893295,30.0612823200263,32.5554039482568,NaN,1,,,,
18,1,0,7180.jpg,32.5671833322667,33.0848250887811,33.284822854921,NaN,1,,,,
19,1,0,7190.jpg,33.2965862396659,33.8142536553796,34.6142447199409,NaN,1,,,,
20,1,0,4001.jpg,34.6260099159226,35.1436673698299,35.5436653170937,NaN,1,,,,
21,1,0,4520.jpg,35.5554302112023,36.0730982306623,37.1672068179814,NaN,1,,,,
22,1,0,8116.jpg,37.1789741270741,37.6966309772351,40.0966464331295,NaN,1,39.3084860709787,39.4614278831586,,
23,1,0,8116.jpg,40.1084092141282,40.6260687811464,41.6260714980026,1.03538403671791,1,,,,
24,1,0,4490.jpg,41.6378369958575,42.1554884123052,42.955496683624,NaN,1,,,,
25,1,0,7820.jpg,42.9672597664958,43.4849286915742,44.9790424711082,NaN,1,,,,
26,1,0,7496.jpg,44.9908067614715,45.5084618003948,46.6025845757422,NaN,1,,,,
27,1,0,7496.jpg,46.6143518848348,47.1320069237581,48.4261452757492,0.647142229247038,1,,,,
28,1,0,4530.jpg,48.4378962837027,48.9555531338638,49.0496641361669,NaN,1,,,,
29,1,0,7130.jpg,49.0614305396402,49.5791000684649,50.6732122782596,NaN,1,50.1674003185362,,,
30,1,0,4000.jpg,50.6849780779876,51.2026316075462,52.8967615674692,NaN,1,,,,
31,1,0,7820.jpg,52.9085243484678,53.4261793873911,55.1203075360772,NaN,1,,,,
32,1,0,7496.jpg,55.1320733358052,55.6497461852323,57.5438705906936,NaN,1,,,,
33,1,0,9045.jpg,57.5556240136302,58.0732811656644,59.0732878068693,NaN,1,58.1204225496676,58.2733746255271,,
34,1,0,6314.jpg,-1.95375698986754,-1.43610346030891,0.763911210716287,NaN,1,60.5792757585168,60.7322205894252,61.0381114587344,
35,1,0,5535.jpg,0.775674897333374,1.29333567184221,3.58746587326459,NaN,1,,,,
36,1,0,7180.jpg,3.59922925800856,4.11690663552963,5.71690053769635,NaN,1,,,,
37,1,0,4001.jpg,5.72866060183787,6.24631684825363,8.24633043253561,NaN,1,,,,
38,1,0,8050.jpg,8.25809502477205,8.77575187493312,10.6698814122337,NaN,1,,,,
39,1,0,2850.jpg,10.6816472119617,11.1993061752337,13.6934374633984,NaN,1,,,,
40,1,0,4003.jpg,13.7052065837279,14.2228595095412,15.8228703165923,NaN,1,,,,
41,1,0,8116.jpg,15.8346324938448,16.3522926646083,18.1523024452918,NaN,1,,,,
42,1,0,7237.jpg,18.1640691506382,18.6817353588604,20.2817322797564,NaN,1,,,,
43,1,0,7237.jpg,20.2935515109948,20.8112237566756,22.0111584313718,0.658858219940157,1,,,,
44,1,0,4180.jpg,22.022926947956,22.5405807793877,22.6346951022924,NaN,1,,,,
45,1,0,7190.jpg,22.6464581851642,22.5405807793877,23.1641102053582,NaN,1,,,,
46,1,0,4520.jpg,23.1758820425448,23.6935388927059,25.5876629962941,NaN,1,,,,
47,1,0,2312.jpg,25.5994309091329,26.1170928911342,27.3170897516557,NaN,1,26.4583448548174,,,
48,1,0,4490.jpg,27.3288552495105,27.8465108921791,28.7406316751658,NaN,1,,,,
49,1,0,7830.jpg,28.7524007954953,29.2700654943537,31.0700619926274,NaN,1,,,,
50,1,0,7830.jpg,31.0818305092116,31.599490378102,33.4936159910549,0.576562826399822,1,,,,
51,1,0,4525.jpg,33.5053884319877,34.0230368297061,34.9171521789795,NaN,1,,,,
52,1,0,7830.jpg,34.9289212993099,35.4465817719456,36.4466219210472,NaN,1,,,,
53,1,0,7830.jpg,36.4583840982996,36.9760149873882,37.376035876995,0.858943227360214,1,,,,
54,1,0,7190.jpg,37.3878059029439,37.9054386032703,37.9995384362737,NaN,1,,,,
55,1,0,8116.jpg,38.0113271783457,38.5289613880359,38.7289585504304,NaN,1,,,,
56,1,0,6314.jpg,38.7407267651415,39.2583839171757,40.2583827096842,NaN,1,,,,
57,1,0,6314.jpg,40.2701473019206,40.7878059633185,41.5878281207924,0.717738235105571,1,,,,
58,1,0,7130.jpg,41.5995727894151,42.1172492613168,43.8113701650518,NaN,1,,,,
59,1,0,4000.jpg,43.8231229842431,44.3407780231673,44.6348940365606,NaN,1,,,,
60,1,0,7496.jpg,44.6466577231777,45.1643326857156,47.1643293651132,NaN,1,,,,
61,1,0,2312.jpg,47.1760936554765,47.6937692217598,48.5878712886233,NaN,1,47.2585276086957,,,
62,1,0,7180.jpg,48.599636182732,49.1173014853357,51.4114283661547,NaN,1,,,,
63,1,0,7180.jpg,51.423192656518,51.9408507141716,54.4349835117,1.03540033785612,1,,,,
64,1,0,4490.jpg,54.4467490095549,54.9644073690806,55.658524650341,NaN,1,,,,
65,1,0,4001.jpg,55.6702880350849,56.1879699407,58.6820810033778,NaN,1,,,,
66,1,0,7820.jpg,58.6938513311998,59.2115033513937,60.7056292058451,NaN,1,59.6469278994591,,,
67,1,0,7820.jpg,-0.765160662816015,-0.247482379676512,0.752504036041501,NaN,0,,,61.4822024770483,
68,1,0,4180.jpg,0.764268326404817,1.28192215783656,3.28193815710256,NaN,1,,,,
69,1,0,8050.jpg,3.2937009381003,3.81135778826138,4.41135953912453,NaN,1,,,,
70,1,0,8050.jpg,4.4231226219963,4.94078309463293,7.14080048251435,0.776560290667476,1,,,,
71,1,0,9045.jpg,7.15256386725832,7.67021467996074,9.1643456662523,NaN,1,,,,
72,1,0,4525.jpg,9.17610935286939,9.69377646671001,9.98788070705905,NaN,1,,,,
73,1,0,7237.jpg,9.99964529929548,10.5173027532019,11.9173103604007,NaN,1,,,,
74,1,0,7237.jpg,11.9290737451447,12.4467321046704,12.9408458842045,0.611856904981323,1,,,,
75,1,0,4520.jpg,12.9526131932971,13.4702821183755,14.564393724424,NaN,1,,,,
76,1,0,2850.jpg,14.5761601278982,15.0938317698328,15.7879327499541,NaN,1,,,,
77,1,0,4003.jpg,15.7997027759029,16.3173614373018,16.4114688171294,NaN,1,,,,
78,1,0,4530.jpg,16.4232364280952,16.9408899576538,18.7408988327179,NaN,1,,,,
79,1,0,5535.jpg,18.7527038759281,19.2703241994632,21.3644557291263,NaN,1,,,,
80,1,0,6314.jpg,21.3762188119972,21.8938774733961,22.3879942716594,NaN,1,,,,
81,1,0,7130.jpg,22.3997588638958,22.9174244683718,24.4115442853645,NaN,1,,,,
82,1,0,8050.jpg,24.4233082738547,24.9409648221426,26.9410004431502,NaN,1,,,,
83,1,0,7237.jpg,26.9527734878284,27.4703998488221,28.9645359669539,NaN,1,,,,
84,1,0,8116.jpg,28.9762908992552,29.493947145671,31.7880821770596,NaN,1,,,,
85,1,0,4180.jpg,31.7998452599313,32.3175045250755,34.8116382282233,NaN,1,,,,
86,1,0,7830.jpg,34.8234109710293,35.341057859383,37.0351887249253,NaN,1,,,,
87,1,0,4530.jpg,37.0469530152886,37.5646165066546,38.4587321578001,0.729596407953068,0,,,,
88,1,0,4490.jpg,38.4704955425441,38.9881460533743,39.7881558340569,NaN,1,,,,
89,1,0,7496.jpg,39.800038458613,40.3175754652166,42.4234800395579,NaN,1,,,,
90,1,0,7496.jpg,42.435236783097,42.9529081231594,43.5528981009784,NaN,0,43.2823891552753,,,
91,1,0,4525.jpg,43.5646632969601,44.0823177321372,44.5764345304005,NaN,1,,,,
92,1,0,4001.jpg,44.5881988207639,45.1058580859089,46.9058684703377,NaN,1,,,,
93,1,0,9045.jpg,46.9176333644464,47.4352899127352,48.1294545880464,NaN,1,,,,
94,1,0,7180.jpg,48.1411802386729,48.6588316551215,50.3529595019345,NaN,1,,,,
95,1,0,4000.jpg,50.3647283203909,50.8823809443311,52.0824270101421,NaN,1,,,,
96,1,0,2850.jpg,52.0941641319405,52.6118134352782,53.6118131334051,NaN,1,,,,
97,1,0,4003.jpg,53.6235765181491,54.1412400095151,54.2353485968342,NaN,1,,,,
98,1,0,4003.jpg,54.2471119815791,54.764772756088,56.76478422726,0.811857991723627,1,,,,
99,1,0,7190.jpg,56.7765530457173,57.294206877149,58.5883307392387,NaN,1,57.0471908911659,,,
100,1,0,5535.jpg,58.6000941239836,59.1177645584266,61.0118826245562,NaN,1,,,,
101,1,0,7820.jpg,-0.764977425941652,-0.247328726350133,0.352710154885244,NaN,1,61.1766448754661,61.3296117430991,61.7884731025179,
102,1,0,2312.jpg,0.36446357782188,0.88209567440208,1.37621428390321,NaN,1,,,,
103,1,0,4520.jpg,1.38797887613873,1.90563512255449,2.90564025439471,NaN,1,,,,
104,1,0,7237.jpg,2.91740363913868,3.4350659230131,4.83507202084638,NaN,1,,,,
105,1,0,4000.jpg,4.84683238686102,5.3645490078643,6.45861623859037,NaN,1,,,,
106,1,0,4001.jpg,6.47037811397058,6.98803617162321,8.68216462218152,NaN,1,,,,
107,1,0,4180.jpg,8.6939283087986,9.21158998892679,9.41160767868132,NaN,1,,,,
108,1,0,9045.jpg,9.42335536603332,9.94101493305061,10.1410033411294,NaN,1,,,,
109,1,0,4003.jpg,10.1527634052718,10.6704425940306,12.3645514228483,NaN,1,,,,
110,1,0,7820.jpg,12.3763365424438,12.8939764877205,14.6939847590393,NaN,1,,,,
111,1,0,8050.jpg,14.7057496531479,15.2234116351492,17.5175406290791,NaN,1,,,,
112,1,0,8050.jpg,17.5293058250609,18.0469641845866,18.941084363827,0.823644620684718,1,,,,
113,1,0,8050.jpg,18.952847748571,19.4705073155892,21.364635041652,0.776579610535919,1,,,,
114,1,0,6314.jpg,21.3764023507447,21.8940685589669,23.7882639045692,NaN,1,,,,
115,1,0,6314.jpg,23.8000067619541,24.3176135012072,24.4234866807619,NaN,0,,,,
116,1,0,4490.jpg,24.4352512729984,24.9529057081754,27.3529281071478,0.0353650187216772,0,,,,
117,1,0,7190.jpg,27.3646930012574,27.882348643926,29.9764807773345,NaN,1,,,,
118,1,0,7830.jpg,29.988250199538,30.5059058422075,31.8000257799495,NaN,1,,,,
119,1,0,7830.jpg,31.8117909759312,32.3294481279654,34.0235756729053,0.764801132144385,1,,,,
120,1,0,2850.jpg,34.0353417745055,34.5530167370434,35.9530125711963,NaN,1,,,,
121,1,0,7130.jpg,35.9647774653058,36.482427674262,37.8824355833331,NaN,1,,,,
122,1,0,7130.jpg,37.894201383061,38.4118724212503,40.0118687384002,0.800098229455216,1,,,,
123,1,0,7496.jpg,40.0236487261564,40.5412916901623,42.3413059989398,NaN,1,,,,
124,1,0,4525.jpg,42.3530621387335,42.8707232151155,44.764877807871,NaN,1,,,,
125,1,0,4520.jpg,44.776618552145,45.2942808360185,46.7884577069972,NaN,1,,,,
126,1,0,7180.jpg,46.8001836594967,47.3178223972818,49.7178749835475,NaN,1,,,,
127,1,0,2312.jpg,49.7296413870217,50.2472746910935,52.6473194286627,NaN,1,,,,
128,1,0,8116.jpg,52.6590728516003,53.1767013257049,54.2708253085439,NaN,1,,,,
129,1,0,5535.jpg,54.2825944288743,54.8002473546876,56.2943744166305,NaN,1,,,,
130,1,0,4530.jpg,56.3061408201038,56.823797972138,56.9179089744412,NaN,1,,,,
131,1,0,4000.jpg,56.9296726610582,57.4473286056009,57.8473289678477,NaN,1,57.3532622804933,,,
132,1,0,4520.jpg,57.8590923525926,58.3767627870357,60.6708833285238,NaN,1,59.5062499773594,,,
133,1,0,9045.jpg,-0.659128094348489,-0.14147396104363,1.05854795493178,NaN,1,,,61.3416057587692,
134,1,0,9045.jpg,1.07029715164754,1.58796849170994,1.78795086233004,0.623620289726205,1,,,,
135,1,0,7190.jpg,1.79971817142268,2.31737290847377,4.11738600975877,NaN,1,,,,
136,1,0,8050.jpg,4.12914999824898,4.64681047088561,7.1409764744385,NaN,1,,,,
137,1,0,8050.jpg,7.1527081625236,7.67036772954089,9.67037829509445,0.658918292655471,1,,,,
138,1,0,4490.jpg,9.68214228358465,10.1998124161546,11.0939208223499,NaN,1,,,,
139,1,0,4530.jpg,11.105689338935,11.623361886489,11.8233394271419,NaN,1,,,,
140,1,0,7180.jpg,11.8351043212506,12.3527641901419,13.2468861806192,NaN,1,,,,
141,1,0,7180.jpg,13.2586462447607,13.7763145660938,14.3763039401665,0.670677753051677,1,,,,
142,1,0,7830.jpg,14.3880691361483,14.9057323256411,16.1057334123843,NaN,1,,,,
143,1,0,7830.jpg,16.1174970990014,16.6351593828749,19.0351721219131,0.564798234163391,1,,,,
144,1,0,7820.jpg,19.0469409403704,19.5645932624375,20.1645944095544,NaN,1,,,,
145,1,0,4525.jpg,20.1763577942993,20.6940194744275,21.8940214667891,NaN,1,,,,
146,1,0,7496.jpg,21.9057854552793,22.4234637384188,23.8234785905679,NaN,1,,,,
147,1,0,4180.jpg,23.8352286929021,24.3528740718921,25.2469939492594,NaN,1,,,,
148,1,0,2312.jpg,25.2587597489864,25.7764202216231,25.8705297145616,NaN,1,,,,
149,1,0,4001.jpg,25.8822994386373,26.3999511569582,27.5999561680492,NaN,1,,,,
150,1,0,5535.jpg,27.6117201565394,28.1293833460322,28.7293802669283,NaN,1,,,,
151,1,0,4003.jpg,28.7411777633151,29.2588017093258,29.3529139191196,NaN,1,,,,
152,1,0,7130.jpg,29.3646824357038,29.8823347577709,31.6823496702946,NaN,1,31.2118444678163,,,
153,1,0,2850.jpg,31.6941151681494,32.2117895269412,33.2117717164374,NaN,1,,,,
154,1,0,6314.jpg,33.2353021084018,33.7529610716729,34.6471072119866,NaN,1,,,,
155,1,0,8116.jpg,34.6588844828857,35.1765165794659,36.7765141041073,NaN,1,,,,
156,1,0,8116.jpg,36.7882774888521,37.3059415839634,38.0000748644898,NaN,0,,,,
157,1,0,7237.jpg,38.0118222499677,38.529477288891,40.4236074299388,NaN,1,,,,
158,1,0,4001.jpg,40.4353732296659,40.9530291742085,41.0471428933679,NaN,1,,,,
159,1,0,4525.jpg,41.0589207680132,40.9530291742085,41.5765579964336,NaN,1,,,,
160,1,0,9045.jpg,41.588349757234,42.1059936268584,44.5060353456993,NaN,1,,,,
161,1,0,4530.jpg,44.5177972210786,45.0354214689623,45.435419114353,NaN,1,,,,
162,1,0,7180.jpg,45.4471815934785,45.9648589709996,47.6589690073088,NaN,1,,,,
163,1,0,8050.jpg,47.6707326939268,48.188405845226,49.0825127420567,NaN,1,,,,
164,1,0,4000.jpg,49.0942752211822,49.6119369013104,51.611947466864,NaN,1,49.8708415493084,,,
165,1,0,5535.jpg,51.6237117572264,52.1414075489974,53.8354964542004,NaN,1,,,,
166,1,0,4003.jpg,53.84726134831,54.3649175947248,54.7649170513532,NaN,1,,,,
167,1,0,7830.jpg,54.7766819454628,55.2943439274641,56.8943544326421,NaN,1,56.6003138874839,56.7533284510419,,
168,1,0,7237.jpg,56.9061157042761,57.4237758750396,57.7178861528473,NaN,1,,,,
169,1,0,7820.jpg,57.7296492357182,58.2473103121001,59.1414298875943,NaN,1,,,,
170,1,0,4180.jpg,59.1531947817039,59.670854046848,61.4708623181668,NaN,1,59.9650591127593,,,
171,1,0,6314.jpg,-1.69490124528693,-1.1772525456945,0.622769309906289,0.317698629376537,0,,,63.0239167893278,0.152794498184448
172,1,0,4490.jpg,0.634533600268696,1.15219467665156,1.75219039005606,NaN,1,,,,
173,1,0,7496.jpg,1.76395347292691,2.28161636054665,4.17574227537261,NaN,1,,,,
174,1,0,8116.jpg,4.18750626386282,4.70516311402389,5.50516595163026,NaN,1,,,,
175,1,0,7130.jpg,5.51693144948513,6.03459373335863,6.32870099243701,NaN,1,,,,
176,1,0,2850.jpg,6.34046739591122,6.85813420787872,9.15226018307931,NaN,1,,,,
177,1,0,7190.jpg,9.16402658655352,9.68169490788569,11.8816959946289,NaN,1,,,,
178,1,0,2312.jpg,11.8934617943569,12.4111210595011,14.1052458875847,NaN,1,,,,
179,1,0,4520.jpg,14.1170131966774,14.6346676318544,15.1287859394824,NaN,1,,,,
180,1,0,8116.jpg,15.1405499279726,15.6582104006093,17.7523416283984,NaN,1,,,,
181,1,0,4530.jpg,17.7641056168886,18.2817651839068,19.6817688667561,NaN,1,,,,
182,1,0,9045.jpg,19.6935328552463,20.2112075159112,22.6112090856504,NaN,1,,,,
183,1,0,4001.jpg,22.6229742816322,23.1406371692528,24.6347657405604,NaN,1,,,,
184,1,0,7237.jpg,24.6465239934651,25.164185069847,25.9641933411658,NaN,1,,,,
185,1,0,8050.jpg,25.9759748382867,26.4936051236291,28.2936121874554,NaN,1,,,,
186,1,0,4180.jpg,28.3053918733385,28.8230740808267,30.2230439539071,NaN,1,28.9054766392601,29.0584121121083,,
187,1,0,4490.jpg,30.2348082442704,30.7524711318902,32.6466510819728,NaN,1,,,,
188,1,0,2850.jpg,32.6584186929385,33.1760218097161,34.0819373722316,NaN,1,,,,
189,1,0,4003.jpg,34.0937004551033,34.6113253067324,35.9054494706952,NaN,1,,,,
190,1,0,4000.jpg,35.9172161760425,36.4348775542976,37.1289906093361,NaN,1,,,,
191,1,0,4000.jpg,37.1407555034448,37.6584259378888,38.3525332573417,0.635386391326392,1,,,,
192,1,0,7130.jpg,38.3642984533235,38.8819534922468,39.1760692037678,NaN,1,,,,
193,1,0,6314.jpg,39.1878579458389,39.7055003060987,40.7996128177665,NaN,1,,,,
194,1,0,6314.jpg,40.8113755987642,41.3290517687938,41.9290335960432,0.635400579354609,1,,,,
195,1,0,7496.jpg,41.9407975845334,42.4584619815178,44.658472124449,NaN,1,,,,
196,1,0,2312.jpg,44.6702370185576,45.1879062455091,45.2820069841318,NaN,1,,,,
197,1,0,7190.jpg,45.2937724819867,45.8114287284025,47.0114352488572,NaN,1,45.5761767309086,,,
198,1,0,7190.jpg,47.0231995392205,47.5408582006194,48.2349754818797,0.847190710042014,1,,,,
199,1,0,7180.jpg,48.2467473190663,48.7643978298956,49.5643997618827,NaN,1,,,,
200,1,0,5535.jpg,49.5761670709744,50.0938215061524,51.093827543611,NaN,1,,,,
201,1,0,7820.jpg,51.1055939470853,50.0938215061524,51.6232411373121,NaN,1,,,,
202,1,0,4525.jpg,51.6350117670072,52.1526640890743,54.352714079233,NaN,1,,,,
203,1,0,4520.jpg,54.364477463977,54.8821050324632,56.5762518972715,NaN,1,,,,
204,1,0,7830.jpg,56.5879977733848,57.1056522085628,57.5997714218092,NaN,1,57.0468766414333,,,
205,1,0,7830.jpg,57.6115354102994,58.1291907510958,58.3292241382433,NaN,0,,,,
206,1,0,7820.jpg,58.3409896360981,58.8586123746163,59.2586073031516,0.235305730876462,0,,,,
207,1,0,4490.jpg,59.2703700841494,59.7880335755153,60.1880282021775,NaN,1,59.7998748434784,,,
208,1,0,4490.jpg,60.199831736023,60.7174496445741,63.2115845552144,0.823589981681835,1,,,,
209,1,0,2312.jpg,63.2233497511961,63.7410102238327,65.4351353537886,NaN,1,,,,
210,1,0,7130.jpg,65.4468984366604,65.9645604186608,67.2586824695136,NaN,1,,,,
211,1,0,4530.jpg,67.2704422317829,67.7881108549882,68.2822216157929,NaN,1,,,,
212,1,0,8116.jpg,68.2939837930453,68.8116521143784,70.2116506653883,NaN,1,,,,
213,1,0,7180.jpg,70.2234149557507,70.7410778433714,72.3410832167092,NaN,1,,,,
214,1,0,7237.jpg,72.352846299581,72.8705176396434,74.1646288230695,NaN,1,,,,
215,1,0,7237.jpg,74.1763952265428,74.6940526804501,74.8940492390984,NaN,0,,,,
216,1,0,7190.jpg,74.9058120200971,75.4234724927337,77.5176013055398,NaN,1,,,,
217,1,0,4000.jpg,77.5293658977762,78.0470272760313,79.0470248610472,NaN,1,78.3059270940621,,,
218,1,0,4525.jpg,-0.470765718825533,0.0468959613026527,0.246890406840066,NaN,1,,,79.5294386491541,
219,1,0,2850.jpg,0.258676432054926,0.776310339872907,1.2704259306438,NaN,1,,,,
220,1,0,7830.jpg,1.28219414535579,1.7998449580582,3.99986083657404,NaN,1,,,,
221,1,0,9045.jpg,4.01162965503136,4.52929556138133,6.42341543874772,NaN,1,,,,
222,1,0,4001.jpg,6.43518637031593,6.95283899425613,9.04698954191372,NaN,1,,,,
223,1,0,4180.jpg,9.05875051167459,9.57638924945968,10.7763984867715,NaN,1,,,,
224,1,0,4520.jpg,10.7881597584046,11.3058205329144,12.3058280797377,NaN,1,,,,
225,1,0,6314.jpg,12.3175842195315,12.8352413715656,13.5293619734275,NaN,1,,,,
226,1,0,8050.jpg,13.5411329049957,14.0587846233166,16.0588302061306,NaN,1,,,,
227,1,0,7496.jpg,16.0705869496705,16.5882308192949,17.082335542641,NaN,1,,,,
228,1,0,4003.jpg,17.0941046629705,17.6117587962754,17.8117550530515,NaN,1,,,,
229,1,0,5535.jpg,17.8235214565248,18.3411780048127,20.0353432838701,NaN,1,,,,
230,1,0,7496.jpg,20.0471118004543,20.5647327277356,21.9647349012212,1.21182031798162,0,,,,
231,1,0,7190.jpg,21.9764988897114,22.4941693241544,23.0941571888625,NaN,1,,,,
232,1,0,7237.jpg,23.1059223848442,22.4941693241544,23.6235725938013,NaN,1,,,,
233,1,0,4001.jpg,23.6353643546017,24.1529997717844,24.7529960889342,NaN,1,,,,
234,1,0,4180.jpg,24.7647606811706,25.2824193425686,26.8824591294224,NaN,1,,,,
235,1,0,7830.jpg,26.8942321741006,27.411855818239,28.3059932042361,NaN,1,,,,
236,1,0,4530.jpg,28.3177324391454,28.8353986473676,31.3295278224214,NaN,1,,,,
237,1,0,2312.jpg,31.3412915090385,31.8589504723104,32.2589469102095,NaN,1,,,,
238,1,0,4490.jpg,32.2707130118106,32.7883695600985,33.4824880488504,NaN,1,,,,
239,1,0,8116.jpg,33.4942532448322,34.0119103968664,34.61194505188,NaN,1,,,,
240,1,0,7130.jpg,34.6237020972922,35.1413372126017,36.035493616595,NaN,1,,,,
241,1,0,4520.jpg,36.0472506620072,36.564877324874,38.7648935052639,NaN,1,38.3885083612768,,,
242,1,0,4003.jpg,38.7766565881357,39.2943240038494,41.0943313695489,NaN,1,,,,
243,1,0,4000.jpg,41.1060808681386,41.623749793217,42.823752389324,NaN,1,,,,
244,1,0,9045.jpg,42.8355184909251,43.3531780579424,44.9531837331542,NaN,1,,,,
245,1,0,7820.jpg,44.9649510422469,45.4826175523422,47.082613869492,NaN,1,,,,
246,1,0,2850.jpg,47.0943790654737,47.6120413493481,48.7061595966015,NaN,1,,,,
247,1,0,8050.jpg,48.717921773854,49.2355849633468,49.7296981391346,NaN,1,,,,
248,1,0,7180.jpg,49.7532270217334,50.2708847775139,52.4709006560306,NaN,1,,,,
249,1,0,7180.jpg,52.4826661538855,53.0003320602345,54.0944457793939,0.741270740179971,1,,,,
250,1,0,5535.jpg,54.1062082585195,53.0003320602345,54.623861486205,NaN,1,,,,
251,1,0,5535.jpg,54.6356239653305,55.1532965128845,56.8474131903986,NaN,0,54.7533338847543,54.9062772062989,,
252,1,0,4525.jpg,56.859179895745,57.3768337271767,57.6709500424431,NaN,1,,,,
253,1,0,6314.jpg,57.6827137290602,58.2003748054431,58.600368828359,NaN,1,58.1180558658134,,,
254,1,0,4490.jpg,58.6121358355786,59.1297908745019,59.6239088802567,NaN,1,,,,
255,1,0,4525.jpg,-1.38844104361124,-0.870782080339268,1.02336073937113,NaN,1,,,61.0240055399718,
256,1,0,2312.jpg,1.03511114357934,1.55277312558064,4.04690562123596,NaN,1,,,,
257,1,0,2312.jpg,4.05866689286995,4.57632917674437,6.67045980078819,0.529507476185245,1,,,,
258,1,0,7237.jpg,6.68222409115151,7.19988969562746,8.5998879447643,NaN,1,,,,
259,1,0,7237.jpg,8.61165132950919,9.12931723585825,11.329324058187,0.564809403462277,1,,,,
260,1,0,9045.jpg,11.3410880466772,11.8587506324238,14.0587610772272,NaN,1,,,,
261,1,0,6314.jpg,14.0705232544797,14.5881840289894,15.7881884363342,NaN,1,,,,
262,1,0,7190.jpg,15.799962990377,16.3176159161903,18.1176211687798,NaN,1,,,,
263,1,0,4001.jpg,18.1293890816178,18.6470555917131,20.2470525126091,NaN,1,,,,
264,1,0,7820.jpg,20.2588174067187,20.7764805962115,22.0705987227147,NaN,1,,,,
265,1,0,7180.jpg,22.0823645224427,22.6000271081903,23.0941396802318,NaN,1,,,,
266,1,0,8050.jpg,23.1059091024354,23.6235650469771,24.6235656507233,NaN,1,,,,
267,1,0,7830.jpg,24.6353344691806,25.1529858856284,26.4471109552105,NaN,1,,,,
268,1,0,4520.jpg,26.4588746418276,26.9765429631607,28.1765407293005,NaN,1,,,,
269,1,0,4003.jpg,28.188302906553,28.7059700203945,31.1059836650511,NaN,1,,,,
270,1,0,2850.jpg,31.1177467479229,31.6354035980839,31.9295153852563,NaN,1,,,,
271,1,0,7496.jpg,31.9412950711394,32.4589733542789,33.658944555601,NaN,1,,,,
272,1,0,7496.jpg,33.6707064309803,34.1883681111085,36.4825272923326,0.74126772145064,1,,,,
273,1,0,8116.jpg,36.4942725647006,37.011918849309,39.1060549070653,NaN,1,,,,
274,1,0,4180.jpg,39.1178191974286,39.6354857075239,39.729587049892,NaN,1,,,,
275,1,0,4000.jpg,39.7413561702224,40.2590063791786,42.6590251556754,NaN,1,,,,
276,1,0,5535.jpg,42.6707885404203,43.1884484093107,43.8825671999357,NaN,1,,,,
277,1,0,4530.jpg,43.8943299809334,44.4119973966481,46.6120048227222,NaN,1,,,,
278,1,0,7130.jpg,46.6237790748919,47.1414235482625,48.7414355628061,NaN,1,,,,
279,1,0,7830.jpg,48.7532119280868,49.2708579108221,49.8708554354635,NaN,1,,,,
280,1,0,7820.jpg,49.8826212351914,50.4002780853525,52.6002927563777,NaN,1,,,,
281,1,0,4180.jpg,52.6120579523595,53.1297141987752,55.0238434342027,NaN,1,52.9180164412082,,,
282,1,0,7180.jpg,55.0356140638978,55.5532769515175,57.0473937497809,NaN,1,,,,
283,1,0,4530.jpg,57.0591571345258,55.5532769515175,57.576807343482,NaN,1,,,,
284,1,0,4530.jpg,57.5885722375906,58.1062315027357,58.7062426116599,0.682464683884973,1,,,,
285,1,0,7496.jpg,58.7179921102488,59.2356595259625,61.3297841125477,NaN,1,59.6475059861405,,,
286,1,0,9045.jpg,-0.7531500441346,-0.235492590227295,1.65863604145488,NaN,1,,,62.0945786034872,
287,1,0,4520.jpg,1.67040335054753,2.18807046438906,4.68222560051527,NaN,1,,,,
288,1,0,4003.jpg,4.69395909983905,5.21162832679056,7.1057466947932,NaN,1,,,,
289,1,0,6314.jpg,7.11751641886895,7.63516904280914,8.23516928430672,NaN,1,,,,
290,1,0,2850.jpg,8.24693327279692,8.76459012295891,11.0587242487281,NaN,1,,,,
291,1,0,4000.jpg,11.0704888409646,11.5881635016294,13.9881614488932,NaN,1,,,,
292,1,0,7130.jpg,13.9999308710958,14.5175856081469,15.1175852458991,NaN,1,,,,
293,1,0,5535.jpg,15.1293483287709,15.6470009527102,17.5411368293435,NaN,1,,,,
294,1,0,4001.jpg,17.5646645044508,18.0823243733412,19.9764533068965,NaN,1,,,,
295,1,0,4490.jpg,19.9882224272269,20.5058762586586,22.4000039847224,NaN,1,,,,
296,1,0,8116.jpg,22.4117691807041,22.9294375020372,24.3294345436825,NaN,1,,,,
297,1,0,7237.jpg,24.3412172482949,24.8588571935716,26.9529872138692,NaN,1,,,,
298,1,0,7190.jpg,26.9647566360727,27.4824198255656,27.8824093203866,NaN,1,,,,
299,1,0,4525.jpg,27.894178440717,28.4118280459279,29.2118601652082,NaN,1,,,,
300,1,0,2312.jpg,29.2236205312238,29.7412650045944,30.141253593797,NaN,1,,,,
301,1,0,8050.jpg,30.1530212047628,30.670682884891,32.4706857224965,NaN,1,,,,
302,1,0,8050.jpg,32.482450314732,33.0001089761308,33.0942217896718,NaN,0,,,,
303,1,0,7496.jpg,33.1059860800342,33.0001089761308,33.6236540994942,NaN,1,,,,
304,1,0,7830.jpg,33.6354005793537,34.1530794662403,36.5530792247419,0.164762250909916,0,35.7884619332181,,,
305,1,0,7190.jpg,36.5648438169774,37.0824982521553,38.4825067649717,NaN,1,,,,
306,1,0,7130.jpg,38.4942695459704,39.0119276036239,40.70605786542,NaN,1,,,,
307,1,0,4180.jpg,40.7178200426724,41.2354777984519,43.4354942807149,NaN,1,,,,
308,1,0,7180.jpg,43.4472567598405,43.9649157231124,44.9649226661895,NaN,1,,,,
309,1,0,4003.jpg,44.9766848434419,45.4943450142055,46.5884665820613,NaN,1,,,,
310,1,0,4525.jpg,46.6002287593137,47.1178847038564,47.4119967929018,NaN,1,,,,
311,1,0,7820.jpg,47.4237701394532,47.9414236690118,50.3414309743366,NaN,1,,,,
312,1,0,2312.jpg,50.3532052265073,50.8708753590772,51.2708588164405,NaN,1,,,,
313,1,0,4520.jpg,51.282623408676,51.8002944468653,54.0002967411001,NaN,1,,,,
314,1,0,4520.jpg,54.0120586164794,54.529728145304,56.3297327941473,1.20010764789095,1,56.2827568365165,,,
315,1,0,4530.jpg,56.341500405113,56.8591635946059,58.8591645002243,NaN,1,,,,
316,1,0,4530.jpg,58.8709281868423,59.3885895650974,60.8827117970732,1.08245266934136,1,59.4945511934238,,,
317,1,0,2850.jpg,-1.35318590663883,-0.835518792798212,1.25860368067606,NaN,1,,,62.2475152838269,
318,1,0,9045.jpg,1.27037129164182,1.788026028692,3.48215236614033,NaN,1,,,,
319,1,0,9045.jpg,3.49391635463053,4.01157411041095,6.01158769469293,0.941273638160965,1,,,,
320,1,0,4490.jpg,6.02338458733357,6.54101306143821,7.54101275956509,NaN,1,,,,
321,1,0,8116.jpg,7.55277795554775,8.07046438925681,8.27043226997557,NaN,1,,,,
322,1,0,8116.jpg,8.28219535284734,8.79986699478195,8.89396682778624,NaN,0,,,,
323,1,0,4001.jpg,8.905732023768,9.4233918926584,10.3175108644073,0.270641769796384,0,,,,
324,1,0,6314.jpg,10.3292775697537,10.846930495567,12.5410601536169,NaN,1,,,,
325,1,0,6314.jpg,12.5528235383617,13.0704861241084,13.9646011715085,1.21186439143003,1,,,,
326,1,0,4000.jpg,13.9763835742478,14.4940253307623,14.7881395329177,NaN,1,,,,
327,1,0,7237.jpg,14.7999162000715,15.3175597678237,16.6116845355318,NaN,1,,,,
328,1,0,5535.jpg,16.6234554671,17.1411071854209,19.035237930214,NaN,1,,,,
329,1,0,2850.jpg,19.0470046355613,19.5646587688652,21.3646691532949,NaN,1,19.8823909061384,,,
330,1,0,4003.jpg,21.3764337455304,21.894093916294,22.3882092051927,NaN,1,,,,
331,1,0,6314.jpg,22.3999747030475,22.9176336663195,24.2117587359007,NaN,1,,,,
332,1,0,2312.jpg,24.2235203094078,24.7411804801714,26.8353086892312,NaN,1,,,,
333,1,0,4530.jpg,26.8470880732411,27.364733150358,27.8588753059485,NaN,1,,,,
334,1,0,5535.jpg,27.8706124277469,28.3882816546984,29.7882783944706,NaN,1,,,,
335,1,0,7237.jpg,29.8000420810877,30.3177079874376,30.9176985690019,NaN,1,,,,
336,1,0,7130.jpg,30.9294737267901,31.4471209170179,32.9412727325416,NaN,1,,,,
337,1,0,7130.jpg,32.9530116655778,33.470668817612,34.4706727419598,1.15303961901191,1,,,,
338,1,0,7830.jpg,34.482443673528,35.0001101836233,37.494230000616,NaN,1,,,,
339,1,0,7830.jpg,37.5059936872331,38.0236514430126,39.8236621293154,0.576561618908272,1,,,,
340,1,0,7830.jpg,39.8354279290434,40.3530847792044,42.047213833509,0.847151164685783,1,41.6002360042648,,,
341,1,0,7180.jpg,42.0589847650763,42.5766364833971,43.7766442113452,NaN,1,,,,
342,1,0,4525.jpg,43.7884103129454,44.3060632387587,46.1060736231875,NaN,1,,,,
343,1,0,8050.jpg,46.1178466678657,46.6354947637119,48.0355035784014,NaN,1,,,,
344,1,0,9045.jpg,48.0472669631463,48.5649247189258,49.3649257452944,NaN,1,,,,
345,1,0,4520.jpg,49.3884576466226,49.9061157042752,50.3061133496667,NaN,1,,,,
346,1,0,7190.jpg,50.3178815643778,50.8355347920642,52.7296640274917,NaN,1,,,,
347,1,0,8116.jpg,52.7414298272197,53.2590881867454,54.6590930770872,NaN,1,,,,
348,1,0,4001.jpg,54.6708576693236,55.1885196513249,57.5885311828706,NaN,1,55.5180112489934,,,
349,1,0,4180.jpg,57.6003009069473,58.1179595683461,58.4120710536454,NaN,1,,,,
350,1,0,7820.jpg,58.4238401739758,58.9414912885504,59.9414961185175,NaN,1,,,,
351,1,0,4000.jpg,59.9532592013893,60.470922089009,60.9650298310835,NaN,1,,,,
352,1,0,4490.jpg,-1.72973013766568,-1.21208083432794,0.0820448389995363,NaN,1,61.9416078115055,62.0945444918452,62.7063244192268,
353,1,0,7496.jpg,0.105601493909489,0.623236911091226,1.31734543803577,NaN,1,,,,
354,1,0,4003.jpg,1.32910821903442,1.84677593662127,2.84677352163817,NaN,1,,,,
355,1,0,4003.jpg,2.85855018879192,3.37619466216256,5.87032927092878,0.811901461426714,1,,,,
356,1,0,9045.jpg,5.88209265567366,6.39974829834227,7.19975385280486,NaN,1,,,,
357,1,0,4180.jpg,7.21151572818417,7.72917046523526,8.52917451033227,NaN,1,,,,
358,1,0,7237.jpg,8.54094031006025,9.058605612664,9.95271945257173,NaN,1,,,,
359,1,0,7180.jpg,9.96448253544349,10.4821499511572,12.1762672324176,NaN,1,,,,
360,1,0,7180.jpg,12.1880312209078,12.7056898823066,13.5056921161658,0.81187248162496,1,,,,
361,1,0,7180.jpg,13.5174585196401,14.0351259353538,16.0351265391,0.7059772653447,1,,,,
362,1,0,4000.jpg,16.0468914332087,16.5645494908613,18.6586795111598,NaN,1,,,,
363,1,0,7496.jpg,18.6704428959038,19.1881094059991,21.482235984945,NaN,1,,,,
364,1,0,7130.jpg,21.4939999734352,22.0116583329618,22.9057803234391,NaN,1,,,,
365,1,0,7190.jpg,22.9175425006915,23.4352102182784,24.7293229110701,NaN,1,,,,
366,1,0,7190.jpg,24.7410908239081,25.2587410328651,25.7528632648409,0.800092795741875,1,,,,
367,1,0,7820.jpg,25.7646299701873,26.2822838016191,28.6823010687513,NaN,1,,,,
368,1,0,4001.jpg,28.694066264733,29.2117258317512,30.3058477014793,NaN,1,,,,
369,1,0,5535.jpg,30.3293747728412,30.8470482260136,30.9411465496532,NaN,1,,,,
370,1,0,4530.jpg,30.9529159718559,31.470568293923,33.7647027215662,NaN,1,,,,
371,1,0,4530.jpg,33.7764658044371,31.470568293923,34.2941181265041,NaN,0,,,,
372,1,0,7830.jpg,34.3176533484357,34.8353156323092,36.6353160549315,0.094188885521362,0,,,,
373,1,0,8050.jpg,36.6470803452949,37.1647504778657,39.0588691477406,NaN,1,,,,
374,1,0,4520.jpg,39.0706400793088,39.5882896845187,40.2824081732706,0.694211767489833,0,,,,
375,1,0,8116.jpg,40.2941881610268,40.8118431999501,42.3059560738648,NaN,1,,,,
376,1,0,2850.jpg,42.3177282129245,42.8353778181354,43.9295021028474,NaN,1,,,,
377,1,0,2312.jpg,43.9412669969561,44.4589286770843,45.1530399208859,NaN,1,,,,
378,1,0,4525.jpg,45.1648099468348,45.6824740419461,45.9765791879136,NaN,1,,,,
379,1,0,6314.jpg,45.9883480063709,46.5059994228195,48.1060102298707,NaN,1,,,,
380,1,0,4490.jpg,48.1178025944173,48.6354434453124,50.435442056697,NaN,1,,,,
381,1,0,7496.jpg,50.4472063470603,50.9648722534093,52.3648976711111,NaN,1,,,,
382,1,0,2312.jpg,52.3766447547168,50.9648722534093,52.894288020595,NaN,1,,,,
383,1,0,4180.jpg,52.9060526128314,53.4237158023243,53.5178228802788,NaN,1,,,,
384,1,0,8050.jpg,53.5295886800068,54.0472476432788,55.3413745240978,NaN,1,,,,
385,1,0,4001.jpg,55.3531336826209,55.8707938533844,56.1649080555399,NaN,1,,,,
386,1,0,6314.jpg,56.1766711384116,56.6943397616178,58.4002373325065,NaN,1,57.9650117187075,,,
387,1,0,9045.jpg,58.4119871329685,58.929644888748,61.423776780658,NaN,1,61.3297430578286,,,
388,1,0,4530.jpg,-0.353149380012837,0.164508677639787,2.05863761119508,NaN,1,,,61.788541929548,
389,1,0,4530.jpg,2.07041156149262,2.58806358168658,5.08219426610503,0.694202107555611,1,,,,
390,1,0,2850.jpg,5.09395795272212,5.61161902910408,5.81161468213395,NaN,1,,,,
391,1,0,4000.jpg,5.82337867062415,6.34103703014989,7.94104059225083,NaN,1,,,,
392,1,0,4003.jpg,7.95281182569124,8.47046052528367,10.5645962811668,NaN,1,,,,
393,1,0,4003.jpg,10.576360269657,11.0940177235643,11.5881360311923,0.905977748342593,1,,,,
394,1,0,4003.jpg,11.5998994159363,12.1175695485072,13.2116787395726,0.953040645380497,1,,,,
395,1,0,7190.jpg,13.223443029935,13.7411116531412,16.2352465637805,NaN,1,,,,
396,1,0,7130.jpg,16.2470057223036,16.76465894999,18.0587846233175,NaN,1,,,,
397,1,0,8116.jpg,18.0705431780943,18.5882078769519,20.6823363878857,NaN,1,,,,
398,1,0,7237.jpg,20.6941230168459,21.2117581321554,22.8117683354612,NaN,1,,,,
399,1,0,4520.jpg,22.8235344370614,23.3411934003334,23.741191045724,NaN,1,,,,
400,1,0,4520.jpg,23.7529520154849,23.3411934003334,24.2706028281873,NaN,0,,,,
401,1,0,4525.jpg,24.2823671185506,24.8000297042972,26.8000396661046,0.200059650092953,0,,,,
402,1,0,7820.jpg,26.8118078808157,27.329460806629,29.0235895590604,NaN,1,,,,
403,1,0,7180.jpg,29.0471205547701,29.5647758955665,32.0589126174436,NaN,1,,,,
404,1,0,5535.jpg,32.0706766059338,32.5883310411118,34.2824606991626,NaN,1,,,,
405,1,0,7830.jpg,34.3059959210932,34.8236588087129,35.4236502958966,NaN,1,,,,
406,1,0,4490.jpg,35.4354176049883,35.9530741532772,38.0472017585917,NaN,1,,,,
407,1,0,9045.jpg,38.0589651433356,38.576634068414,39.7766288158255,NaN,1,,,,
408,1,0,8116.jpg,39.7883928043157,40.3060623331403,41.1060533977006,NaN,1,,,,
409,1,0,7496.jpg,41.1178167824455,41.635479066319,42.8354804549354,NaN,1,,,,
410,1,0,4003.jpg,42.8472474621549,43.3649018973319,43.6590173069799,NaN,1,,,,
411,1,0,8050.jpg,43.6708090677803,44.188442371852,44.5884391116242,NaN,1,,,,
412,1,0,5535.jpg,44.6002009870044,45.1178596484033,47.6119936534233,NaN,1,,,,
413,1,0,5535.jpg,47.6237694149586,48.141420227661,50.0355449349954,NaN,0,,,,
414,1,0,7190.jpg,50.0473080178663,50.5649724148507,51.564970905486,NaN,1,,,,
415,1,0,7190.jpg,51.5767403276895,52.0944044228008,53.8944090716441,0.894219797310143,1,53.3886188467732,53.54156035708,,
416,1,0,7820.jpg,53.9061745694989,54.4238274953123,54.7179398862309,NaN,1,,,,
417,1,0,2850.jpg,54.7297050822126,55.2473746110372,55.94147891176,NaN,1,,,,
418,1,0,7237.jpg,55.9532456171073,56.4709042785062,58.1650321253182,NaN,1,,,,
419,1,0,4180.jpg,58.176799736284,58.6944520583511,59.5885764638124,0.717757253100899,0,,,,
420,1,0,4180.jpg,59.6003383391917,60.1180129998565,61.0121153685932,NaN,0,59.8121559403162,,,
421,1,0,7130.jpg,-0.929682019119355,-0.41202516895828,1.08210098736618,NaN,1,,,61.9533989685606,
422,1,0,4000.jpg,1.09386859833194,1.61152333538212,2.30564091851556,NaN,1,,,,
423,1,0,4520.jpg,2.3174082276073,2.83506326653151,3.92918453251423,NaN,1,,,,
424,1,0,6314.jpg,3.94095335097154,4.45860838989483,5.75273074261986,NaN,1,,,,
425,1,0,2312.jpg,5.76449895733094,6.28216365618846,7.88216933140029,NaN,1,,,,
426,1,0,7830.jpg,7.89394660229937,8.411595603764,10.6115994073634,NaN,1,,,,
427,1,0,7830.jpg,10.6233643014721,11.1410211516331,11.7410229024963,1.01186873840106,1,,,,
428,1,0,4530.jpg,11.7527974565401,12.2704543067011,13.2704458542585,NaN,1,,,,
429,1,0,4530.jpg,13.2822101446218,13.7998706172584,15.799880880938,0.647163058480146,1,,,,
430,1,0,7180.jpg,15.8116472844122,16.3293131907612,17.6234279966629,NaN,1,,,,
431,1,0,4525.jpg,17.6351922870263,18.1528491371873,18.3528462995819,NaN,1,,,,
432,1,0,4001.jpg,18.3881527549529,18.9058077938771,20.9058135294626,NaN,1,,,,
433,1,0,4490.jpg,20.917575404842,21.4352310475115,21.7293440421754,NaN,1,,,,
434,1,0,4530.jpg,21.7411122568874,22.258781785712,23.7529209225722,NaN,1,,,,
435,1,0,7130.jpg,23.764677062366,24.2823266675769,24.8823172491411,NaN,1,,,,
436,1,0,4000.jpg,24.8940830488691,25.4117389934108,27.5058711268193,NaN,1,,,,
437,1,0,2312.jpg,27.5176417565144,28.0352964935646,29.5294163105573,NaN,1,,,,
438,1,0,7190.jpg,29.5411830159046,30.0588459035243,31.752968316624,NaN,1,,,,
439,1,0,4001.jpg,31.7647338144789,32.2823951927339,32.6824094411368,NaN,1,,,,
440,1,0,7496.jpg,32.6941541097585,33.2118115636658,34.9059385048595,NaN,1,,,,
441,1,0,4490.jpg,34.9176961540179,33.2118115636658,35.4353542116714,NaN,1,,,,
442,1,0,4003.jpg,35.4471375200292,35.9647804840351,38.2589109873297,NaN,1,,,,
443,1,0,7830.jpg,38.270675277693,38.7883369578212,40.2824576804333,NaN,1,,,,
444,1,0,7830.jpg,40.2942231782881,40.8118890846372,42.9060136712224,1.04717700500987,1,,,,
445,1,0,2850.jpg,42.9177758484748,43.435437528603,43.7295450895535,NaN,1,,,,
446,1,0,4180.jpg,43.7413123986462,44.2590003417208,46.2589837387086,NaN,1,,,,
447,1,0,8050.jpg,46.2707649339563,46.7884060867245,47.5884083205847,NaN,1,,,,
448,1,0,7820.jpg,47.6001711015833,48.1178300648544,50.6119767485388,NaN,1,,,,
449,1,0,4525.jpg,50.6237386239181,48.1178300648544,51.1413900403668,NaN,1,,,,
450,1,0,4525.jpg,51.153144972669,51.6708066527972,51.764916749481,0.588329833619355,1,,,,
451,1,0,6314.jpg,51.7767085102814,52.2943472480665,53.0943395201193,NaN,1,,,,
452,1,0,7237.jpg,53.1178696102097,52.2943472480665,53.6355460821123,NaN,1,,,,
453,1,0,7180.jpg,53.6472862226401,54.164956355211,55.6590683235063,NaN,1,53.7296981391346,,,
454,1,0,9045.jpg,55.6708374438367,56.1884915771416,56.4826314384973,NaN,1,,,,
455,1,0,9045.jpg,56.4943718808981,57.0120296366786,58.1061509026604,0.600102878298458,1,,,,
456,1,0,8116.jpg,58.1296779740223,58.6473375410396,59.2473474424723,NaN,1,59.2356601297088,,,
457,1,0,5535.jpg,59.2591059972501,59.7767601305541,59.976774197833,NaN,1,,,,
458,1,0,4520.jpg,-0.623801413489673,-0.106115885399049,1.69387125481353,NaN,1,,,60.4591683641993,0.152818044274682
459,1,0,5535.jpg,1.7056322245744,2.22329299908415,4.31741788754152,NaN,1,,,,
460,1,0,7190.jpg,4.32918549850729,4.84684717863547,5.84687253596258,NaN,1,,,,
461,1,0,7496.jpg,5.85861750645745,6.37626862103298,7.57627755647172,NaN,1,,,,
462,1,0,7237.jpg,7.58805150676926,8.10569899886923,8.50569996486229,NaN,1,,,,
463,1,0,6314.jpg,8.51745610465605,9.03512050164045,9.72923416042522,NaN,1,,,,
464,1,0,9045.jpg,9.74099935640697,10.2586646590107,11.058660251666,NaN,1,,,,
465,1,0,9045.jpg,11.0704278626317,11.5880819959357,13.8939813176876,0.553026698849862,1,,,,
466,1,0,4001.jpg,13.9057537586204,14.4234054769413,16.623414412381,NaN,1,,,,
467,1,0,7130.jpg,16.6351799102358,17.152841590364,17.2469513851747,NaN,1,,,,
468,1,0,4530.jpg,17.2587150717918,17.776383694998,18.8705067722176,NaN,1,,,,
469,1,0,4180.jpg,18.8822601951551,19.3999218752833,20.2940384320482,NaN,1,,,,
470,1,0,7180.jpg,20.3058006093006,19.3999218752833,20.8234517238761,NaN,1,,,,
471,1,0,4520.jpg,20.8352178254772,21.352880713097,23.6470100089,NaN,1,,,,
472,1,0,7830.jpg,23.6587788273564,24.1764450355795,24.2705427554729,NaN,1,,,,
473,1,0,8050.jpg,24.2823100645646,24.7999777821524,26.8941011612451,NaN,1,,,,
474,1,0,2312.jpg,26.9176270251146,27.4352965539392,29.1294108164702,NaN,1,,,,
475,1,0,4003.jpg,29.1411769180713,29.6588334663593,30.752959260436,NaN,1,,,,
476,1,0,7820.jpg,30.7647199283238,31.2823897590215,33.1765072214048,2.28246884973123,0,,,,
477,1,0,2850.jpg,33.1882721155143,33.7059304750401,35.8000604953377,0.0118358342497231,0,34.1177893120075,,,
478,1,0,4490.jpg,35.8118284081756,36.3294831452267,37.1294838697213,NaN,1,,,,
479,1,0,4525.jpg,37.1412517825602,37.6589107458321,38.5530276044692,NaN,1,,,,
480,1,0,8116.jpg,38.5647909892141,39.0824487449936,40.7765765918066,NaN,1,,,,
481,1,0,4000.jpg,40.7883472215017,41.3059938079823,43.4001591474143,NaN,1,,,,
482,1,0,7190.jpg,43.4118947598481,43.9295504025176,44.1295472630391,NaN,1,,,,
483,1,0,7190.jpg,44.1413127608939,44.6589756485137,46.8589851876986,0.847160824620005,1,,,,
484,1,0,2312.jpg,46.8707760428806,47.3884069319693,47.6825220397441,NaN,1,,,,
485,1,0,8116.jpg,47.6942851226149,48.2119480102347,49.4119536250719,NaN,1,48.9649751920824,49.1179233435932,,
486,1,0,4530.jpg,49.4237179154352,49.9413768787063,51.341379655938,NaN,1,,,,
487,1,0,4180.jpg,51.3531445500466,51.8708062301748,53.6708114827643,NaN,1,,,,
488,1,0,2850.jpg,53.682576678746,54.2002338307802,56.0002448189553,NaN,1,,,,
489,1,0,8050.jpg,56.0120085055723,56.5296656576065,57.2237865613415,NaN,1,,,,
490,1,0,7180.jpg,57.235549040467,57.7532086074843,59.4473364542973,NaN,1,59.2121339639662,,,
491,1,0,7237.jpg,59.4591031596437,59.976758198568,60.5767566288287,NaN,1,,,,
492,1,0,4525.jpg,-0.153166707519631,0.364492859497659,1.25861152937341,NaN,1,,,60.5885945761893,0.152791781328233
493,1,0,4000.jpg,1.2703776309736,1.78803417926156,4.08216739941327,NaN,1,,,,
494,1,0,7496.jpg,4.09393561412435,4.61158974742921,6.01159584526249,NaN,1,,,,
495,1,0,7496.jpg,6.02336134311736,6.54102996632355,7.63513794989649,0.717751517515353,1,,,,
496,1,0,4490.jpg,7.64690586273446,8.16456392038799,8.36456017716318,NaN,1,,,,
497,1,0,7820.jpg,8.37631933568628,8.8939795064498,10.7881108549891,NaN,1,,,,
498,1,0,4520.jpg,10.7998745416062,11.3175386367175,13.0116607479449,NaN,1,,,,
499,1,0,4520.jpg,13.0234247364351,11.3175386367175,13.5410755491375,NaN,0,,,,
500,1,0,4001.jpg,13.5646020167533,14.082273960561,16.282278971652,0.364762432032876,0,,,,
501,1,0,4001.jpg,16.2940432620153,16.811710677729,18.7058447431245,0.694209352506732,1,,,,
502,1,0,4001.jpg,18.7175951473318,19.2352767510747,20.4352558010924,0.870688801601318,1,,,,
503,1,0,7130.jpg,20.4587898155314,20.9764530050243,23.470579765095,NaN,1,,,,
504,1,0,5535.jpg,23.4941104589316,24.0117754596622,24.6117660412265,NaN,1,,,,
505,1,0,9045.jpg,24.6235327465729,25.1411868798778,26.0353091722282,NaN,1,,,,
506,1,0,4003.jpg,26.0470876506197,26.5647369539574,27.5647306146257,NaN,1,,,,
507,1,0,7830.jpg,27.5764979237183,28.0941553776247,28.6941589397256,NaN,1,,,,
508,1,0,6314.jpg,28.7059244375805,29.2235861177087,29.7176956710218,NaN,1,,,,
509,1,0,4530.jpg,29.7294587538927,30.2471352257953,32.1412457451006,NaN,1,,,,
510,1,0,7820.jpg,32.153010337337,32.6706674893712,32.9647865214938,NaN,1,,,,
511,1,0,7496.jpg,32.9765444725253,33.4942152088415,34.7883345428381,NaN,1,,,,
512,1,0,4180.jpg,34.8000927957419,35.3177505515223,35.4118633650623,NaN,1,,,,
513,1,0,4001.jpg,35.4236279572988,35.941289637427,37.1412907241693,NaN,1,,,,
514,1,0,4000.jpg,37.1530553164048,37.6707136759314,37.7648264894715,NaN,1,,,,
515,1,0,5535.jpg,37.7765883648508,37.6707136759314,38.294240988791,NaN,1,,,,
516,1,0,8116.jpg,38.3060070903921,38.823675109852,41.1177974625771,NaN,1,40.0825921346404,40.2355417955159,,
517,1,0,6314.jpg,41.1296003926764,41.647219810593,42.0472177578567,NaN,1,,,,
518,1,0,7830.jpg,42.0589823500932,42.576638596508,42.9766407699935,NaN,1,,,,
519,1,0,7237.jpg,42.9884032491191,43.5060655329935,45.4001905422001,NaN,1,,,,
520,1,0,2312.jpg,45.4119593606574,45.9296213426587,47.6237389257913,NaN,1,,,,
521,1,0,4525.jpg,47.6355014049168,48.1531624812988,50.1531787824379,NaN,1,,,,
522,1,0,2850.jpg,50.1649303941376,50.6826068660394,51.4825918931419,NaN,1,50.8591466897215,51.0120888037745,,
523,1,0,7180.jpg,51.494364635947,52.0120323535348,53.412040564478,NaN,1,,,,
524,1,0,7130.jpg,53.423792779924,53.9414930997882,55.5414586258985,NaN,1,,,,
525,1,0,8050.jpg,55.5532316705767,56.0708906338486,57.7650067076165,NaN,1,,,,
526,1,0,7190.jpg,57.776771299853,58.2944293575056,58.4944268217732,NaN,1,,,,
527,1,0,4003.jpg,58.5061905083903,59.0238651690552,60.247383063479,NaN,1,58.5886169147861,58.7417920747484,,
528,1,0,4520.jpg,60.2591470519692,60.7768005815278,60.8709191306543,NaN,1,,,,
529,1,0,4490.jpg,-0.765247300349984,-0.224048888926518,2.15242711881638,NaN,1,61.0356777590887,,61.6474788175756,
530,1,0,9045.jpg,2.16419472978214,2.68185188181542,4.81127447132985,NaN,1,,,,
531,1,0,4490.jpg,4.82303755420162,5.34070255493225,6.23481820607776,NaN,1,,,,
532,1,0,7130.jpg,6.24658249644108,6.76424810091794,6.85835004703222,NaN,1,,,,
533,1,0,5535.jpg,6.87011645050552,7.38777450815905,8.78778090786545,NaN,1,,,,
534,1,0,7820.jpg,8.79954429260943,9.35251122061709,10.211326151978,NaN,1,,,,
535,1,0,4003.jpg,10.2230883292305,10.7407641973869,12.8351505078108,NaN,1,,,,
536,1,0,7496.jpg,12.8468806865321,13.3645408572957,14.2586571121874,NaN,1,,,,
537,1,0,7190.jpg,14.2704352887058,14.7878536592434,15.4822248156461,NaN,1,,,,
538,1,0,8050.jpg,15.4939743142359,16.0113932885197,16.5998556443601,NaN,1,,,,
539,1,0,7180.jpg,16.6116407639565,17.1290558138917,17.4233958170071,NaN,1,,,,
540,1,0,9045.jpg,17.4351742953986,17.9525857228591,19.1999005630541,NaN,1,,,,
541,1,0,7237.jpg,19.2116428166919,19.7293093267872,20.6234204498396,NaN,1,,,,
542,1,0,7237.jpg,20.6352055694351,21.1526091481992,23.4702667228557,0.811848633662521,1,,,,
543,1,0,4525.jpg,23.4820563705462,23.9996893727448,25.5526659606867,NaN,1,,,,
544,1,0,4180.jpg,25.5644275341938,26.0820704981998,26.3176098787317,NaN,1,,,,
545,1,0,8116.jpg,26.3293563585912,26.8467973696006,28.847028604273,NaN,1,,,,
546,1,0,4520.jpg,28.8588088939014,29.3764699702842,30.6705714937762,NaN,1,,,,
547,1,0,4530.jpg,30.6823538965155,31.3059427914559,33.6353236017549,NaN,1,,,,
548,1,0,2850.jpg,33.6470688741229,34.2939291540433,36.1647604396721,NaN,1,,,,
549,1,0,7830.jpg,36.1764993727083,36.6941773539756,38.3882901071411,NaN,1,,,,
550,1,0,4000.jpg,38.4000691892779,39.0469137718064,40.9177203038535,NaN,1,,,,
551,1,0,4001.jpg,40.929482782979,41.4471586511354,41.7412855319544,NaN,1,,,,
552,1,0,2312.jpg,41.7530187294051,42.3998862542767,44.082504591488,NaN,1,43.8002370910081,,,
553,1,0,6314.jpg,44.0943093328251,44.6354434453124,47.106017776694,NaN,1,,,,