Trial,nBack,Valence,Image,imagePresentationTime,NoisePresentationTime,x,RT,Accuracy,Clock,dataOneMinPress
1,1,0,9045.jpg,0.00883431200054474,0.574411346000488,2.33687327200096,NaN,1,,
2,1,0,9045.jpg,2.35345454900016,2.88565489100074,3.08522607300074,NaN,0,,
3,1,0,7820.jpg,3.10182022500157,3.63402706099987,5.2302409970016,NaN,1,,
4,1,0,8050.jpg,5.24666202500157,5.77829187700081,6.17803263300084,NaN,1,,
5,1,0,4520.jpg,6.19432850700105,6.72647925000092,8.32273221800097,NaN,1,,
6,1,0,4520.jpg,8.33923378100008,8.87136213100166,10.0687612280017,NaN,0,,
7,1,0,4530.jpg,10.0854524340011,10.616531652,11.315843503,NaN,1,,
8,1,0,7130.jpg,11.3322880190008,11.8644557910011,13.9595085810015,NaN,1,,
9,1,0,7830.jpg,13.976262260001,14.5081371300003,16.6032235360017,NaN,1,,
10,1,0,7496.jpg,16.6196073880001,17.1517665219999,19.5463324730008,NaN,1,,
11,1,0,4000.jpg,19.5630760640015,17.1517665219999,20.0952477570008,NaN,1,,
12,1,0,7190.jpg,20.1115453190014,20.6434916510007,22.2404637520012,NaN,1,,
13,1,0,2850.jpg,22.2565824850008,20.6434916510007,22.7887710590003,NaN,1,,
14,1,0,4525.jpg,22.8054840610002,23.3372719520012,23.5369900860005,NaN,1,,
15,1,0,5535.jpg,23.5537323960016,24.0858141280005,24.2852119930012,NaN,1,,
16,1,0,2312.jpg,24.3020222930008,24.833895437001,25.7312344810016,NaN,1,,
17,1,0,4001.jpg,25.7477614600011,26.2804376910008,26.8790497600003,NaN,1,,
18,1,0,4180.jpg,26.8956898460001,27.427586146001,28.226067222,NaN,1,,
19,1,0,6314.jpg,28.2425178960002,28.7742406450016,29.373382531001,NaN,1,,
20,1,0,7180.jpg,29.3896357840003,29.9220356220012,30.9195824480012,NaN,1,,
21,1,0,7237.jpg,30.9358704620008,31.467757067001,32.4658220370002,NaN,1,,
22,1,0,4003.jpg,32.4819493980012,33.0144353630003,34.6110295120016,NaN,1,,
23,1,0,4490.jpg,34.6275013410013,35.159495412001,37.1548622509999,NaN,1,,
24,1,0,8116.jpg,37.171388488001,37.7037315490015,38.4019915990011,NaN,1,,
25,1,0,8116.jpg,38.4187337740004,38.9503032270004,41.0458424880017,NaN,0,,
26,1,0,5535.jpg,41.0622190780014,41.5945376890013,43.4899382160002,NaN,1,,
27,1,0,4001.jpg,43.5067461140006,44.0382772720004,46.1336919730002,NaN,1,,
28,1,0,4001.jpg,46.1502146420007,46.6821759110007,47.0815141860003,NaN,0,,
29,1,0,2850.jpg,47.0982679260014,47.6301659580004,47.7290420450008,NaN,1,,
30,1,0,4525.jpg,47.7464597430007,48.2785902550004,49.7752681140009,NaN,1,,
31,1,0,2312.jpg,49.7917198850009,50.323434635,52.1197299920004,NaN,1,,
32,1,0,4520.jpg,52.1362022880003,52.6682687130015,52.8671795509999,NaN,1,,
33,1,0,4000.jpg,52.8839124140013,53.4163823190011,53.6152119510007,NaN,1,,
34,1,0,4490.jpg,53.6327630390006,54.1647587900006,55.6614805469999,NaN,1,,
35,1,0,7496.jpg,55.6777957610011,56.2098582610015,58.3048532190005,NaN,1,,
36,1,0,7496.jpg,58.3214651830003,58.8535490100003,60.9486839390011,NaN,0,,
37,1,0,7180.jpg,60.9642459100014,61.4970109180013,61.6969862210008,NaN,1,,
38,1,0,8050.jpg,61.7135666070008,62.2456219520009,64.1411593440007,NaN,1,,
39,1,0,4530.jpg,64.1580520560001,64.6899411860013,66.9847106320012,NaN,1,,
40,1,0,7830.jpg,67.000962043001,67.5332423440013,68.6308339860007,NaN,1,,
41,1,0,7830.jpg,68.6474321270016,69.1795046760017,69.2793051290009,NaN,0,,
42,1,0,7130.jpg,69.2957465020008,69.8277556430003,70.4263379090007,NaN,1,,
43,1,0,7820.jpg,70.4429889540006,70.975129288001,72.8704809850005,NaN,1,,
44,1,0,4180.jpg,72.8874464280016,73.4191712440006,73.5193254040005,NaN,1,,
45,1,0,4180.jpg,73.5359144310005,74.0674493930001,75.1652497120012,NaN,0,,
46,1,0,6314.jpg,75.1818984830006,75.7138924980009,77.1105153190001,NaN,1,,
47,1,0,4003.jpg,77.1272612870016,77.6590789279999,80.053878187,NaN,1,,
48,1,0,7190.jpg,80.070295679001,80.6024325409999,81.1014473530013,NaN,1,,
49,1,0,8116.jpg,81.1176610060011,81.6499500300015,81.9492772660014,NaN,1,,
50,1,0,7237.jpg,81.9660309010014,82.4979430720014,84.094252629,NaN,1,,
51,1,0,7237.jpg,84.11096688,84.6429415010007,84.842639759001,NaN,0,,
52,1,0,9045.jpg,84.8590699720007,85.3911735700003,87.8852082339999,NaN,1,,
53,1,0,5535.jpg,87.9018191760006,88.433714236,89.0325043530011,NaN,1,,
54,1,0,5535.jpg,89.0493776620006,89.580897363001,91.07766773,NaN,0,,
55,1,0,4530.jpg,91.0945549020016,91.6264594700006,93.7213704230016,NaN,1,,
56,1,0,7130.jpg,93.7378689310008,94.2700688929999,96.3651393100008,NaN,1,,
57,1,0,4000.jpg,96.382092885,96.9138822740006,98.1109922720007,NaN,1,,
58,1,0,7496.jpg,98.1279751980001,98.6594333350004,100.555580624001,NaN,1,,
59,1,0,4520.jpg,100.572046379,101.104074191,103.398716713,NaN,1,,
60,1,0,4520.jpg,103.415323567,103.947309969,106.241837941001,NaN,0,,
61,1,0,2850.jpg,106.25852963,106.79061758,107.28954528,NaN,1,,
62,1,0,4180.jpg,107.305649129001,107.837836494,109.234845749001,NaN,1,,
63,1,0,6314.jpg,109.251594754001,109.783481533001,111.778957155,NaN,1,,
64,1,0,4003.jpg,111.795451259,112.327653408001,112.826429133002,NaN,1,,
65,1,0,7237.jpg,112.843033304001,113.375341435001,115.270536585002,NaN,1,,
66,1,0,8116.jpg,115.287179689001,115.819386700001,117.016784068001,NaN,1,,
67,1,0,7830.jpg,117.033146507001,117.565502698,119.061958507,NaN,1,,
68,1,0,7820.jpg,119.078498421,119.610423904001,120.208910790001,NaN,1,,
69,1,0,4490.jpg,120.225664666001,120.757591998001,120.957428315001,NaN,1,,
70,1,0,4001.jpg,120.973873164001,121.505613383,122.204354687001,NaN,1,,
71,1,0,2312.jpg,122.220948167002,122.753268196,125.047672548,NaN,1,,
72,1,0,4525.jpg,125.064437948,125.596396181001,126.793443858001,NaN,1,,
73,1,0,8050.jpg,126.810115587001,127.342283629001,128.040675882001,NaN,1,,
74,1,0,7190.jpg,128.057188598001,128.588919413001,130.484960477001,NaN,1,,
75,1,0,7190.jpg,130.501531880001,131.033470813001,133.028842953001,NaN,0,,
76,1,0,7180.jpg,133.045586689001,131.033470813001,133.577657511001,NaN,1,,
77,1,0,7180.jpg,133.594139109,134.126205299001,136.321029661001,NaN,0,,
78,1,0,9045.jpg,136.337794068,136.869735341001,138.865239309001,NaN,1,,
79,1,0,6314.jpg,138.881881087002,139.413638917002,140.211935877001,NaN,1,,
80,1,0,4490.jpg,140.228309211001,140.760416327001,142.456821896001,NaN,1,,
81,1,0,8050.jpg,142.472268149,142.988429923002,143.703845233002,NaN,1,,
82,1,0,4180.jpg,143.720313501,144.252257388001,146.646797878,NaN,1,,
83,1,0,5535.jpg,146.663245562,147.194458245001,147.892809923002,NaN,1,,
84,1,0,4001.jpg,147.910375376001,148.442481209,148.841784361,NaN,1,,
85,1,0,7820.jpg,148.858358219,149.390314219001,151.285794438001,NaN,1,,
86,1,0,4000.jpg,151.302460502,151.834477471,153.030712741001,NaN,1,,
87,1,0,7190.jpg,153.047321290001,153.580300616,155.176746122001,NaN,1,,
88,1,0,4530.jpg,155.193214256,155.725395249001,158.219524439,NaN,1,,
89,1,0,4520.jpg,158.236128723001,158.767975376,159.566142498001,NaN,1,,
90,1,0,4520.jpg,159.582976718,160.114976054001,160.214593759001,NaN,0,,
91,1,0,7180.jpg,160.231391961001,160.763522578001,162.758776168001,NaN,1,,
92,1,0,7237.jpg,162.775613856002,163.307524577001,164.205279224001,NaN,1,,
93,1,0,7237.jpg,164.221912419001,164.753711852001,166.250444434001,NaN,0,,
94,1,0,7830.jpg,166.267230498001,166.799391823,167.19835565,NaN,1,,
95,1,0,9045.jpg,167.215323815,167.746482025001,167.846720812,NaN,1,,
96,1,0,7496.jpg,167.863452247,168.395463139001,168.694620438,NaN,1,,
97,1,0,4003.jpg,168.711434094001,169.243676581002,171.338567552,NaN,1,,
98,1,0,4525.jpg,171.355127398001,171.887107109002,172.585824807,NaN,1,,
99,1,0,2312.jpg,172.602068173001,173.134331848001,174.032117474,NaN,1,,
100,1,0,7130.jpg,174.048784621,174.58054305,176.177047709001,NaN,1,,
101,1,0,2850.jpg,176.193701624001,176.725903772001,178.820550660001,NaN,1,,
102,1,0,8116.jpg,178.837390203002,179.36943348,181.265112273,NaN,1,,
103,1,0,8116.jpg,181.281638759001,181.813604135001,182.711727158001,NaN,0,,
104,1,0,9045.jpg,182.728302913001,183.260395642001,183.659533946,NaN,1,,
105,1,0,4525.jpg,183.676330058001,184.208191852002,185.804362361001,NaN,1,,
106,1,0,2312.jpg,185.821121440002,184.208191852002,186.353163021,NaN,1,,
107,1,0,5535.jpg,186.369653803,186.901640032002,187.60015579,NaN,1,,
108,1,0,7237.jpg,187.616020671001,188.148788172,189.745179725001,NaN,1,,
109,1,0,7820.jpg,189.761906213002,190.294052557001,191.790545405001,NaN,1,,
110,1,0,4530.jpg,191.807131951,192.339083328001,193.137467979001,NaN,1,,
111,1,0,4530.jpg,193.153719906,193.685856944001,196.179841840001,NaN,0,,
112,1,0,2850.jpg,196.196651263001,196.728439868,197.027016802002,NaN,1,,
113,1,0,7180.jpg,197.044642815001,197.576628806,199.472101394002,NaN,1,,
114,1,0,4003.jpg,199.488853193001,200.021080138,200.41993602,NaN,1,,
115,1,0,7496.jpg,200.436677692001,200.968702280001,202.066110940001,NaN,1,,
116,1,0,4180.jpg,202.082483339002,202.614736402002,204.709804459,NaN,1,,
117,1,0,4000.jpg,204.726373144002,205.258473603,206.156090659,NaN,1,,
118,1,0,8050.jpg,206.172595863001,206.705205481001,206.804948837002,NaN,1,,
119,1,0,4490.jpg,206.821440572001,207.353439712,208.750249351,NaN,1,,
120,1,0,6314.jpg,208.766377593001,209.299100440001,209.997105253,NaN,1,,
121,1,0,7190.jpg,210.01411736,210.546176395001,210.845272537001,NaN,1,,
122,1,0,7190.jpg,210.862073364,211.394004512002,213.190036605001,NaN,0,,
123,1,0,8116.jpg,213.206733965,213.738328525002,214.935759598,NaN,1,,
124,1,0,7130.jpg,214.952606679,215.484524277001,215.883584759002,NaN,1,,
125,1,0,7830.jpg,215.900206582,216.431826865,216.631979848,NaN,1,,
126,1,0,4520.jpg,216.648254546,217.180487098001,217.67962864,NaN,1,,
127,1,0,4001.jpg,217.696016185,218.227501750001,218.527218936,NaN,1,,
128,1,0,7830.jpg,218.543789938001,219.075966538001,219.874099116001,NaN,1,,
129,1,0,4530.jpg,219.890631724002,220.422876235001,222.817253210002,NaN,1,,
130,1,0,9045.jpg,222.833644670001,223.365879704001,224.662913903001,NaN,1,,
131,1,0,4001.jpg,224.679283836002,225.211505586001,225.810230794001,NaN,1,,
132,1,0,7180.jpg,225.826718158001,226.358900348001,227.456126514,NaN,1,,
133,1,0,7180.jpg,227.472937231001,228.004944198001,229.701018458001,NaN,0,,
134,1,0,4000.jpg,229.717721172001,230.249569299001,231.646591492001,NaN,1,,
135,1,0,7190.jpg,231.662976590002,232.19504167,233.69151391,NaN,1,,
136,1,0,7190.jpg,233.708191077001,234.240133403,236.435157614002,NaN,0,,
137,1,0,7130.jpg,236.451697675,236.984005903001,237.881524469001,NaN,1,,
138,1,0,4490.jpg,237.898370266001,238.430120444002,240.325866414001,NaN,1,,
139,1,0,2312.jpg,240.342465433001,240.874588397,241.273561267,NaN,1,,
140,1,0,2312.jpg,241.289643115,241.822143112,241.922237889001,NaN,0,,
141,1,0,7496.jpg,241.938414144,242.470935473,243.268902467002,NaN,1,,
142,1,0,4525.jpg,243.285624733,243.817151573001,245.912606363001,NaN,1,,
143,1,0,4525.jpg,245.929433366,246.461359479001,247.359304602001,NaN,0,,
144,1,0,8116.jpg,247.374866243001,247.89111543,250.402124638002,NaN,1,,
145,1,0,4003.jpg,250.418985513001,250.950480928001,252.447345146002,NaN,1,,
146,1,0,5535.jpg,252.463865668,252.995038373001,253.794472237001,NaN,1,,
147,1,0,4520.jpg,253.810644720001,254.343071036001,256.736408256002,NaN,1,,
148,1,0,7820.jpg,256.753713755001,257.285997914001,259.580277116002,NaN,1,,
149,1,0,7237.jpg,259.597197627001,260.129085392,262.323910646001,NaN,1,,
150,1,0,8050.jpg,262.340717213001,262.871515693001,263.471302702001,NaN,1,,
151,1,0,2850.jpg,263.488087088001,264.020108489001,264.718228407,NaN,1,,
152,1,0,6314.jpg,264.735266521,265.266416501001,267.262624782001,NaN,1,,
153,1,0,4180.jpg,267.279026734001,267.811106372001,269.606878730001,NaN,1,,
154,1,0,7237.jpg,269.62354846,270.155640096002,271.352849614001,NaN,1,,
155,1,0,5535.jpg,271.369629186001,271.901046069001,274.395645241,NaN,1,,
156,1,0,7830.jpg,274.412286504001,274.944551636001,276.141710038,NaN,1,,
157,1,0,7820.jpg,276.15793927,276.690208613001,279.184337251001,NaN,1,,
158,1,0,7180.jpg,279.201162441001,279.733056799001,280.930288519001,NaN,1,,
159,1,0,8116.jpg,280.945874520001,281.477914499001,282.775875759,NaN,1,,
160,1,0,7496.jpg,282.791479253001,283.308156051,285.220097806001,NaN,1,,
161,1,0,2312.jpg,285.236780747,285.768994734,286.766535765,NaN,1,,
162,1,0,4530.jpg,286.783029760001,287.315391462002,288.412496274001,NaN,1,,
163,1,0,4525.jpg,288.429261521002,288.961300622001,289.260677241,NaN,1,,
164,1,0,8050.jpg,289.277322896001,289.809485926,291.704737834001,NaN,1,,
165,1,0,6314.jpg,291.721457935,292.253520301001,293.650274455002,NaN,1,,
166,1,0,6314.jpg,293.666956536001,294.198885865,295.795034761,NaN,0,,
167,1,0,2850.jpg,295.812003895,296.343836956001,298.339082160001,NaN,1,,
168,1,0,4520.jpg,298.355808510001,298.887959087,299.387710387,NaN,1,,
169,1,0,4520.jpg,299.404486665,299.935507164,302.130275292,NaN,0,,
1,1,1,7230.jpg,0.020245232999514,0.536272821998864,1.6507946519996,NaN,1,,
2,1,1,4534.jpg,1.66763863099914,2.1996328289988,2.39929186599875,NaN,1,,
3,1,1,4640.jpg,2.41565575399909,2.94773544800046,3.04740623500038,NaN,1,,
4,1,1,5270.jpg,3.06430703299884,3.59628666000026,4.79347498300012,NaN,1,,
5,1,1,5270.jpg,4.81000249099998,5.34170759299923,6.8386544799996,NaN,0,,
6,1,1,7402.jpg,6.855441832,7.38725225800044,9.48241157600023,NaN,1,,
7,1,1,4656.jpg,9.49909388000015,10.0310501339991,10.729360936999,NaN,1,,
8,1,1,5622.jpg,10.7461306980003,11.2780874559994,11.9766954489987,NaN,1,,
9,1,1,7330.jpg,11.9930780340001,12.5254037489995,14.619719114,NaN,1,,
10,1,1,7450.jpg,14.6367446860004,15.1690086540002,15.268942753999,NaN,1,,
11,1,1,7340.jpg,15.28533212,15.8174943199992,17.6131973869997,NaN,1,,
12,1,1,1720.jpg,17.6299446800003,18.1618101330005,18.3613314269987,NaN,1,,
13,1,1,1720.jpg,18.3780973299999,18.9102141669991,21.2043307889999,NaN,0,,
14,1,1,4651.jpg,21.2213916719993,21.753663817999,23.3495710730003,NaN,1,,
15,1,1,4611.jpg,23.3662372519993,23.8984340739989,25.9934775759993,NaN,1,,
16,1,1,5628.jpg,26.0101169299996,26.5423334049992,27.7387196849995,NaN,1,,
17,1,1,4608.jpg,27.7559017659987,28.2880822320003,30.5826704209994,NaN,1,,
18,1,1,7351.jpg,30.5994697039987,31.1315525369992,31.8299105610004,NaN,1,,
19,1,1,7460.jpg,31.8462391579997,32.3784286699993,33.3761607759989,NaN,1,,
20,1,1,7430.jpg,33.3926924949992,33.9247155399989,34.92250891,NaN,1,,
21,1,1,2240.jpg,34.9389515129988,35.4710804259994,37.865507728,NaN,1,,
22,1,1,7350.jpg,37.881957783,38.4143763800002,38.7131201539996,NaN,1,,
23,1,1,4531.jpg,38.7299310479993,39.2618401540003,40.0602080299996,NaN,1,,
24,1,1,4531.jpg,40.0769847430001,40.6087216630003,42.9034609899991,NaN,0,,
25,1,1,4653.jpg,42.9203027139993,43.4522591410005,44.6495368029991,NaN,1,,
26,1,1,7350.jpg,44.6661504450003,45.1983760219991,46.7944649379988,NaN,1,,
27,1,1,5622.jpg,46.8111901669999,47.3431535210002,48.0407262459994,NaN,1,,
28,1,1,7351.jpg,48.0579598719996,48.5903996689995,50.3860961629998,NaN,1,,
29,1,1,7330.jpg,50.4027578730002,50.9345835219992,51.1344023709989,NaN,1,,
30,1,1,4608.jpg,51.1502207499998,51.6829557359997,53.5783091579997,NaN,1,,
31,1,1,4653.jpg,53.5950153609992,54.1269731119992,56.3221885940002,NaN,1,,
32,1,1,4653.jpg,56.3385866930003,56.8708874879994,57.2697879209991,NaN,0,,
33,1,1,7430.jpg,57.2863186819995,57.8183699389992,59.4149042019999,NaN,1,,
34,1,1,7450.jpg,59.4312534319997,59.9633806919992,60.8613970509996,NaN,1,,
35,1,1,5270.jpg,60.8779885969998,61.410197367999,63.8043938729988,NaN,1,,
36,1,1,1720.jpg,63.8209739550002,64.3529032530005,65.251136941999,NaN,1,,
37,1,1,1720.jpg,65.2676498469991,65.7994636099993,65.8995043260002,NaN,0,,
38,1,1,7402.jpg,65.916108088999,66.4480520010002,68.044340602999,NaN,1,,
39,1,1,4531.jpg,68.0614377049988,68.5930043169992,69.3913813500003,NaN,1,,
40,1,1,4656.jpg,69.4076592649999,69.9398852169998,70.6382805939993,NaN,1,,
41,1,1,4611.jpg,70.6549559439991,71.1871088469998,71.7856822949998,NaN,1,,
42,1,1,7340.jpg,71.8020054810004,72.334169628999,72.5338197709989,NaN,1,,
43,1,1,7460.jpg,72.5505730759996,73.0824242999988,74.4791469369993,NaN,1,,
44,1,1,5628.jpg,74.4958928619999,75.0278235229998,75.227327433,NaN,1,,
45,1,1,7230.jpg,75.2442419109993,75.7761025999989,77.5718140329991,NaN,1,,
46,1,1,4534.jpg,77.588727204,78.1206370740001,78.4199465839993,NaN,1,,
47,1,1,2240.jpg,78.4364718429988,78.9685386909987,81.1634758780001,NaN,1,,
48,1,1,4651.jpg,81.1799853809989,81.7119704919987,84.0067552519995,NaN,1,,
49,1,1,4640.jpg,84.0228571459993,84.555377572,86.0520999580003,NaN,1,,
50,1,1,4653.jpg,86.0684824399996,86.6006229049999,86.7003161230004,NaN,1,,
51,1,1,4653.jpg,86.7172255690002,87.2489417689994,88.4462137709997,NaN,0,,
52,1,1,5270.jpg,88.4619873350002,88.9948950429989,90.9901379089988,NaN,1,,
53,1,1,4656.jpg,91.0069212170001,91.5389965009999,92.8348925369992,NaN,1,,
54,1,1,7430.jpg,92.8525552430001,93.3844650989995,95.1804162190001,NaN,1,,
55,1,1,4534.jpg,95.197022078999,95.7290387649991,97.4252750129999,NaN,1,,
56,1,1,7402.jpg,97.4415512729993,97.9739602829995,100.368324093999,NaN,1,,
57,1,1,7450.jpg,100.384719141,100.916911208,102.114072578999,NaN,1,,
58,1,1,4531.jpg,102.1308104,102.662769176999,103.161786925999,NaN,1,,
59,1,1,7460.jpg,103.178079341,103.710289256,104.109393590999,NaN,1,,
60,1,1,4651.jpg,104.125927610999,104.658221866999,107.052355235999,NaN,1,,
61,1,1,7340.jpg,107.069045142,107.6012498,108.299520123999,NaN,1,,
62,1,1,4611.jpg,108.316021261,108.847212936,111.34249051,NaN,1,,
63,1,1,4611.jpg,111.358974844999,111.890933708999,112.290024930999,NaN,0,,
64,1,1,4640.jpg,112.306760150999,112.838562482999,114.834093022,NaN,1,,
65,1,1,2240.jpg,114.850792961999,112.838562482999,115.382682709,NaN,1,,
66,1,1,7330.jpg,115.39953558,115.931507502,116.230968296999,NaN,1,,
67,1,1,7351.jpg,116.247429298999,116.779425102,116.979040386999,NaN,1,,
68,1,1,5622.jpg,116.995681809,116.779425102,117.527936634,NaN,1,,
69,1,1,5628.jpg,117.544395207,118.076574655999,120.271335248999,NaN,1,,
70,1,1,7350.jpg,120.287878391,120.819877274,122.715526025999,NaN,1,,
71,1,1,4608.jpg,122.732104884999,123.264009601,124.759681358999,NaN,1,,
72,1,1,7230.jpg,124.777300841,125.309342524,125.80809972,NaN,1,,
73,1,1,1720.jpg,125.825012748999,126.357058039999,127.953160757999,NaN,1,,
74,1,1,4640.jpg,127.969956695,128.501872461,128.801360195999,NaN,1,,
75,1,1,2240.jpg,128.817723054999,129.34980027,130.646635641,NaN,1,,
76,1,1,4656.jpg,130.663640344999,131.195518716999,131.993741278,NaN,1,,
77,1,1,4656.jpg,132.010335499999,132.542278871,134.537808452,NaN,0,,
78,1,1,7450.jpg,134.554114000999,135.086344398,135.485440738999,NaN,1,,
79,1,1,7350.jpg,135.502218402,136.033950945,138.029332601,NaN,1,,
80,1,1,7402.jpg,138.046076307999,138.577729695,139.476037232,NaN,1,,
81,1,1,5270.jpg,139.492754594999,140.024604565,142.418987609,NaN,1,,
82,1,1,4608.jpg,142.435556536999,142.967548969,144.364356553999,NaN,1,,
83,1,1,4611.jpg,144.381099614,144.913352026999,145.511948956,NaN,1,,
84,1,1,7230.jpg,145.528510979,146.060479398,148.055971300999,NaN,1,,
85,1,1,4651.jpg,148.072328839,148.604292683,150.999008342,NaN,1,,
86,1,1,4651.jpg,151.015472245999,151.547720002,153.044025019999,NaN,0,,
87,1,1,1720.jpg,153.060544051999,151.547720002,153.592903846,NaN,1,,
88,1,1,4534.jpg,153.609349681999,154.141069072999,156.336434888999,NaN,1,,
89,1,1,7351.jpg,156.353025839,156.884996035,159.279343974,NaN,1,,
90,1,1,7430.jpg,159.295857174,159.827822731999,160.227092686,NaN,1,,
91,1,1,7330.jpg,160.243675562,160.775464064,161.075250635,NaN,1,,
92,1,1,4653.jpg,161.091643013999,161.623590273999,163.419501844999,NaN,1,,
93,1,1,7460.jpg,163.43628695,163.96831815,165.265095442999,NaN,1,,
94,1,1,7340.jpg,165.281899889,165.813693568,166.612076223,NaN,1,,
95,1,1,5628.jpg,166.628784008,167.160697619,168.258013328999,NaN,1,,
96,1,1,5628.jpg,168.274670191,168.807006957999,169.604909992999,NaN,0,,
97,1,1,4531.jpg,169.62156523,170.153622173,172.348665006999,NaN,1,,
98,1,1,5622.jpg,172.365270025,172.897070470999,175.391522398999,NaN,1,,
99,1,1,7350.jpg,175.407810921,175.939912214,176.837856679,NaN,1,,
100,1,1,4531.jpg,176.85474318,177.386830805999,178.484062853,NaN,1,,
101,1,1,7340.jpg,178.500544439999,179.032683859999,180.529470107,NaN,1,,
102,1,1,5628.jpg,180.545771396,179.032683859999,181.077961526,NaN,1,,
103,1,1,4611.jpg,181.094715048999,181.626569062999,184.120964211999,NaN,1,,
104,1,1,2240.jpg,184.137335514999,184.669631778999,187.163425262999,NaN,1,,
105,1,1,2240.jpg,187.180250091,187.712294932999,188.410098851,NaN,0,,
106,1,1,5622.jpg,188.427279566,188.959396298,191.154179642999,NaN,1,,
107,1,1,1720.jpg,191.170894909999,191.702826090999,192.401101767,NaN,1,,
108,1,1,4651.jpg,192.418069264999,192.949426515999,194.845515444,NaN,1,,
109,1,1,4640.jpg,194.862142098,195.394208096999,197.089600965999,NaN,1,,
110,1,1,5270.jpg,197.106742968999,197.638838814,197.937974254,NaN,1,,
111,1,1,7430.jpg,197.954748042999,198.486635162,200.083172626999,NaN,1,,
112,1,1,7230.jpg,200.099568330999,200.631990004,201.928964504999,NaN,1,,
113,1,1,4656.jpg,201.945282629,202.476889345,203.375417195,NaN,1,,
114,1,1,7351.jpg,203.392131962,202.476889345,203.924103428,NaN,1,,
115,1,1,7450.jpg,203.940870778,204.472832698,204.572585979,NaN,1,,
116,1,1,7402.jpg,204.589094274999,205.121091802999,206.418214048999,NaN,1,,
117,1,1,7460.jpg,206.434978656,206.966839145,207.864790633999,NaN,1,,
118,1,1,7330.jpg,207.881279736999,208.413648330999,210.109405547,NaN,1,,
119,1,1,4608.jpg,210.125951218999,210.658204579999,211.257005849999,NaN,1,,
120,1,1,4534.jpg,211.273576539999,211.805427649,214.299745532,NaN,1,,
121,1,1,4653.jpg,214.316237469,214.848339795,215.446905229999,NaN,1,,
122,1,1,7430.jpg,215.463050724,215.995555862999,218.290366048999,NaN,1,,
123,1,1,7340.jpg,218.306930748,218.838917785999,219.337766326,NaN,1,,
124,1,1,4651.jpg,219.354285099,219.886460873,221.582619859999,NaN,1,,
125,1,1,2240.jpg,221.599099187999,222.131401335,223.72733048,NaN,1,,
126,1,1,4640.jpg,223.743994566999,224.276034475999,226.470873508,NaN,1,,
127,1,1,4531.jpg,226.487458935,227.019207535999,227.119361883,NaN,1,,
128,1,1,7460.jpg,227.136112660999,227.668263694999,229.364017616999,NaN,1,,
129,1,1,4608.jpg,229.380734921999,229.912672557999,230.511531458,NaN,1,,
130,1,1,5270.jpg,230.528101092999,229.912672557999,231.060202512999,NaN,1,,
131,1,1,4611.jpg,231.076170483999,231.608755796,234.003019480999,NaN,1,,
132,1,1,5622.jpg,234.019828011,234.551873863,236.547364914999,NaN,1,,
133,1,1,4656.jpg,236.564081868,237.095919844,238.991244338,NaN,1,,
134,1,1,4534.jpg,239.007951497999,239.540155794999,240.238497124999,NaN,1,,
135,1,1,7230.jpg,240.255079197999,240.787383744,241.385480629999,NaN,1,,
136,1,1,7330.jpg,241.402418874999,241.934293012999,244.328872521,NaN,1,,
137,1,1,7450.jpg,244.345659463999,244.87771318,247.271940959999,NaN,1,,
138,1,1,7351.jpg,247.288542057,247.820796049,248.917951881,NaN,1,,
139,1,1,5628.jpg,248.934635501,249.466724624999,251.860783643,NaN,1,,
140,1,1,4653.jpg,251.877624888999,252.409442447999,254.005980251,NaN,1,,
141,1,1,4653.jpg,254.022652907999,254.554768832,255.452811038,NaN,0,,
142,1,1,7402.jpg,255.469259092999,256.001327848999,256.500150256999,NaN,1,,
143,1,1,7350.jpg,256.515883640999,257.048676873999,258.046703226999,NaN,1,,
144,1,1,1720.jpg,258.062945988999,258.595238284999,260.790229806,NaN,1,,
145,1,1,7330.jpg,260.806593125,261.338709071999,263.832947945999,NaN,1,,
146,1,1,7450.jpg,263.849057931,264.381735072999,265.578570837,NaN,1,,
147,1,1,5628.jpg,265.595452002,266.127466615,268.621410464999,NaN,1,,
148,1,1,5628.jpg,268.638238045,269.170055475999,270.267231495,NaN,0,,
149,1,1,4651.jpg,270.284109991,270.816021655999,271.215367785,NaN,1,,
150,1,1,4640.jpg,271.232096262,271.763741503999,273.958932075,NaN,1,,
151,1,1,4608.jpg,273.975720633,274.507876359999,276.702547228,NaN,1,,
152,1,1,4608.jpg,276.719330435999,277.250846363,279.245498606,NaN,0,,
153,1,1,7340.jpg,279.262470015999,279.794221332999,282.289398683,NaN,1,,
154,1,1,1720.jpg,282.305987240999,282.838001609,283.935406548,NaN,1,,
155,1,1,4611.jpg,283.951964271999,284.484210541999,284.583968432,NaN,1,,
156,1,1,4656.jpg,284.60049909,285.132646087999,286.529280408,NaN,1,,
157,1,1,7230.jpg,286.545839443999,287.078072036,288.57447679,NaN,1,,
158,1,1,7430.jpg,288.591176297999,289.122965429,290.619768092,NaN,1,,
159,1,1,5270.jpg,290.636293018999,291.168364532999,291.966534338999,NaN,1,,
160,1,1,7460.jpg,291.98324962,292.514945362,293.812301570999,NaN,1,,
161,1,1,4531.jpg,293.828890327,294.360718649999,295.458502653999,NaN,1,,
162,1,1,7351.jpg,295.475097312999,296.007075505999,296.406130224999,NaN,1,,
163,1,1,4534.jpg,296.422803264,296.95424615,297.852881163,NaN,1,,
164,1,1,5622.jpg,297.869236372,298.401351318,299.997514532999,NaN,1,,
165,1,1,7350.jpg,300.015311535999,300.546399904999,302.242332775,NaN,1,,
166,1,1,4653.jpg,302.259078768999,302.791164204,304.387334003999,NaN,1,,
167,1,1,4653.jpg,304.404868008,304.936348873,305.135535058,NaN,0,,
168,1,1,7402.jpg,305.152104758999,305.684342118,306.183005614999,NaN,1,,
169,1,1,7402.jpg,306.199925818,306.731871857999,308.728071538,NaN,0,,
170,1,1,2240.jpg,308.743615607,309.276296511,311.670211061,NaN,1,,
171,1,1,7351.jpg,311.686454396999,312.218974287,314.714006609,NaN,1,,
172,1,1,7351.jpg,314.730520363,315.261654832999,315.361577632999,NaN,0,,
173,1,1,7330.jpg,315.378094672,315.910414119,317.406497422,NaN,1,,
174,1,1,5628.jpg,317.42322556,317.955888958,319.850791588,NaN,1,,
175,1,1,2240.jpg,319.867612242,320.399638081999,322.49469275,NaN,1,,
176,1,1,4531.jpg,322.511309559999,323.043360086,325.537507396999,NaN,1,,
177,1,1,7350.jpg,325.554084325999,326.069447148,328.580313899,NaN,1,,
178,1,1,1720.jpg,328.596844109999,329.129054978999,330.226425458,NaN,1,,
179,1,1,1720.jpg,330.243049482,330.775076431,332.570927414999,NaN,0,,
180,1,1,7230.jpg,332.587505760999,333.119706435,333.917815843,NaN,1,,
181,1,1,7450.jpg,333.934542497,334.466490851,336.460613740999,NaN,1,,
182,1,1,7402.jpg,336.477276602,336.993896149999,337.310757227999,NaN,1,,
183,1,1,5622.jpg,337.326355039,337.858462094,340.15393606,NaN,1,,
184,1,1,4656.jpg,340.169596240999,340.68498993,342.996243857,NaN,1,,
185,1,1,4640.jpg,343.012509696999,343.545433744999,344.442901289,NaN,1,,
186,1,1,7460.jpg,344.459743523999,344.991532693999,347.287374211999,NaN,1,,
187,1,1,4608.jpg,347.302781413,347.835463078,348.233890555,NaN,1,,
188,1,1,7340.jpg,348.250509451,348.783063638999,349.779490288,NaN,1,,
189,1,1,7430.jpg,349.796748293,350.329044078,350.529606016,NaN,1,,
190,1,1,5270.jpg,350.545201158999,351.077379049999,351.776645669999,NaN,1,,
191,1,1,4651.jpg,351.808847418,352.340836452999,354.036953032,NaN,1,,
192,1,1,4653.jpg,354.053611902,354.585932440999,354.685520977,NaN,1,,
193,1,1,4611.jpg,354.702062577,355.234364082,355.534584777999,NaN,1,,
194,1,1,4534.jpg,355.549969039999,356.082254711,356.582070930999,NaN,1,,
195,1,1,7351.jpg,356.597597147,357.129773073999,358.22700458,NaN,1,,
196,1,1,4608.jpg,358.244830448,358.776469576,360.272278421,NaN,1,,
197,1,1,4651.jpg,360.289122202999,360.820961938,362.018256682999,NaN,1,,
198,1,1,4653.jpg,362.034791713999,362.566797044999,364.262773336,NaN,1,,
199,1,1,4611.jpg,364.279466120999,364.811668725999,366.008764957,NaN,1,,
200,1,1,7330.jpg,366.025325077,366.557749722,367.954162636999,NaN,1,,
201,1,1,4531.jpg,367.970890017999,368.503289741,370.099008338,NaN,1,,
202,1,1,7430.jpg,370.115688816999,368.503289741,370.648888898,NaN,1,,
203,1,1,4656.jpg,370.665570671999,371.196689340999,371.596696012,NaN,1,,
204,1,1,4534.jpg,371.612128799999,372.144203305999,373.441404580999,NaN,1,,
205,1,1,7402.jpg,373.457969220999,373.989936804999,375.687150476,NaN,1,,
206,1,1,1720.jpg,375.702579452,376.234890754,376.733453921999,NaN,1,,
207,1,1,1720.jpg,376.750260257,377.282261140999,378.380466608,NaN,0,,
208,1,1,2240.jpg,378.396104952999,378.911842602,381.123960661,NaN,1,,
209,1,1,5622.jpg,381.139827256,381.671852918,381.772589369999,NaN,1,,
210,1,1,7460.jpg,381.787586884999,382.303411024999,384.814346821,NaN,1,,
211,1,1,7340.jpg,384.831047062,385.363345013999,385.861923998,NaN,1,,
212,1,1,7230.jpg,385.878871101999,386.410671021,388.306195144,NaN,1,,
213,1,1,5270.jpg,388.322870302,388.855173653999,390.552046293,NaN,1,,
214,1,1,7450.jpg,390.567426571999,391.099733198,393.094815393999,NaN,1,,
215,1,1,7350.jpg,393.111444578999,393.643880303,395.540020328999,NaN,1,,
216,1,1,5628.jpg,395.555172884999,396.088095855999,396.486823214,NaN,1,,
217,1,1,4640.jpg,396.503471923999,397.035527313999,397.833731261999,NaN,1,,
218,1,1,7340.jpg,397.850432548999,398.382385894,399.679302151999,NaN,1,,
219,1,1,4531.jpg,399.696032475,400.228164791999,401.127114457,NaN,1,,
220,1,1,4531.jpg,401.143549416,401.674948757,403.969163181999,NaN,0,,
221,1,1,7450.jpg,403.986933048,404.518286405999,406.414618028999,NaN,1,,
222,1,1,7402.jpg,406.430241268999,406.962845075999,407.959959906,NaN,1,,
223,1,1,4651.jpg,407.976467996999,408.508578072,409.905365744,NaN,1,,
224,1,1,7430.jpg,409.921914273,410.454111179999,411.850701349,NaN,1,,
225,1,1,7350.jpg,411.867250937999,412.399292636999,414.095397034,NaN,1,,
226,1,1,7350.jpg,414.112002878999,414.644087953,415.043168652999,NaN,0,,
227,1,1,4534.jpg,415.059834281999,415.591777419,418.086036511,NaN,1,,
228,1,1,5270.jpg,418.102610987,418.634706772,418.734516674,NaN,1,,
229,1,1,7330.jpg,418.768365944999,419.299707085,420.496070215,NaN,1,,
230,1,1,7351.jpg,420.512691677999,421.046055653,422.840982706999,NaN,1,,
231,1,1,4611.jpg,422.857019894,423.389934964,424.388726552999,NaN,1,,
232,1,1,4656.jpg,424.404447000999,424.936427606999,426.532738328,NaN,1,,
233,1,1,4608.jpg,426.549392072999,427.081797909999,429.176438073,NaN,1,,
234,1,1,4608.jpg,429.194152500999,429.725558021,430.024844191999,NaN,0,,
235,1,1,4640.jpg,430.04108929,430.573504622,432.96766934,NaN,1,,
236,1,1,4653.jpg,432.98409498,433.516296304,435.511437022,NaN,1,,
237,1,1,5622.jpg,435.528095415,436.060315713999,437.157941956,NaN,1,,
238,1,1,7460.jpg,437.173268151999,437.690059204,439.302907105999,NaN,1,,
239,1,1,1720.jpg,439.318957046,439.851619036999,440.948270209999,NaN,1,,
240,1,1,7230.jpg,440.965486252999,441.497224823999,442.195827396999,NaN,1,,
241,1,1,2240.jpg,442.228604848,442.761278869,444.057575973,NaN,1,,
242,1,1,5628.jpg,444.074090479,442.761278869,444.606352571,NaN,1,,
243,1,1,7330.jpg,444.622967878,445.156048179,446.352172752,NaN,1,,
244,1,1,4653.jpg,446.368769727,446.901792908999,449.096109418999,NaN,1,,
245,1,1,4608.jpg,449.113073013999,449.645022523,451.839779956999,NaN,1,,
246,1,1,1720.jpg,451.856305731,452.371450487,454.085356157,NaN,1,,
247,1,1,7460.jpg,454.101226901999,454.633107928999,455.131978773999,NaN,1,,
248,1,1,7351.jpg,455.148857659,455.681427029,456.977709981,NaN,1,,
249,1,1,7351.jpg,456.99437712,457.526342269,458.224643907,NaN,0,,
250,1,1,7350.jpg,458.241441876,458.773425756999,459.671322188,NaN,1,,
251,1,1,5622.jpg,459.686948028,460.220125251,460.718754092,NaN,1,,
252,1,1,4656.jpg,460.735382628,461.267591386,462.266275929,NaN,1,,
253,1,1,5628.jpg,462.298496329,462.830627976,462.930299841,NaN,1,,
254,1,1,7230.jpg,462.946979044,463.479012411,463.578756474,NaN,1,,
255,1,1,7430.jpg,463.594255238,464.110953387999,464.227249763999,NaN,1,,
256,1,1,7430.jpg,464.243235406999,464.775960441,466.871048809,NaN,0,,
257,1,1,5270.jpg,466.887270318,467.419808982,469.913679649,NaN,1,,
258,1,1,7340.jpg,469.930435762999,470.461703124,471.061385704999,NaN,1,,
259,1,1,4531.jpg,471.077644427,471.610197976999,471.709694701,NaN,1,,
260,1,1,4531.jpg,471.726090929,472.2582191,474.053706225999,NaN,0,,
261,1,1,4611.jpg,474.070559107,474.603016514999,476.598076806,NaN,1,,
262,1,1,2240.jpg,476.614643060999,477.146278647999,478.644330145,NaN,1,,
263,1,1,4651.jpg,478.65938813,479.191875171,481.686137977,NaN,1,,
264,1,1,7450.jpg,481.702302964999,482.234952159,484.630109566999,NaN,1,,
265,1,1,4534.jpg,484.645348352,485.177857103999,486.873848633999,NaN,1,,
266,1,1,4640.jpg,486.890155673,487.4226684,488.320344825999,NaN,1,,
267,1,1,7402.jpg,488.336576836,488.869154522999,489.467650286999,NaN,1,,
268,1,1,1720.jpg,489.484294512,490.016391116,492.310858265,NaN,1,,
269,1,1,7402.jpg,492.327953820999,492.859730325999,495.254194502,NaN,1,,
270,1,1,4531.jpg,495.270281269,495.803047478999,496.4013992,NaN,1,,
271,1,1,7450.jpg,496.417956715,496.950120899,498.047485879,NaN,1,,
272,1,1,7350.jpg,498.064227806,498.596125909,498.696021002999,NaN,1,,
273,1,1,4653.jpg,498.712329857,499.244756316999,501.738747563,NaN,1,,
274,1,1,7330.jpg,501.771833929,502.304377802999,503.102277,NaN,1,,
275,1,1,7330.jpg,503.119137136999,503.650679447999,505.048423732,NaN,0,,
276,1,1,4640.jpg,505.065222317,505.596335335,505.895578455,NaN,1,,
277,1,1,7351.jpg,505.912544948,506.444281537999,506.544052711999,NaN,1,,
278,1,1,4608.jpg,506.560659567,507.092804754,509.287763099999,NaN,1,,
279,1,1,4608.jpg,509.30443217,509.836400646,510.535489745,NaN,0,,
280,1,1,4608.jpg,510.551623985,511.083538294,512.579955776,NaN,0,,
281,1,1,5270.jpg,512.596558436999,513.128599236999,514.823607818,NaN,1,,
282,1,1,2240.jpg,514.841157567,515.373568347,517.667916975999,NaN,1,,
283,1,1,4611.jpg,517.684581897,518.216528523,519.314297692999,NaN,1,,
284,1,1,4611.jpg,519.330574869,518.216528523,519.862800953999,NaN,0,,
285,1,1,7430.jpg,519.878212444,520.3948265,521.709409633,NaN,1,,
286,1,1,7430.jpg,521.725038970999,522.257157614,522.656382150999,NaN,0,,
287,1,1,7460.jpg,522.672733584999,523.204974744,523.703625684,NaN,1,,
288,1,1,4656.jpg,523.720231158,524.252431625999,526.049354241,NaN,1,,
289,1,1,4534.jpg,526.064867109999,526.596944265,526.796686279,NaN,1,,
290,1,1,7340.jpg,526.812981367,527.345024101,529.539962866,NaN,1,,
291,1,1,4651.jpg,529.556667172999,530.088900156999,530.288237843999,NaN,1,,
292,1,1,7230.jpg,530.303717658999,530.820212503999,532.533912609,NaN,1,,
293,1,1,5628.jpg,532.549280223,533.081523643999,533.18137375,NaN,1,,
294,1,1,5622.jpg,533.197756727999,533.713458401,535.226565288,NaN,1,,
295,1,1,7402.jpg,535.243198299999,535.775477727,538.169638096999,NaN,1,,
296,1,1,1720.jpg,538.186732991999,538.718242823999,539.616222944,NaN,1,,
297,1,1,7351.jpg,539.632726439,538.718242823999,540.164937602,NaN,1,,
298,1,1,7230.jpg,540.181501227,540.713537325,542.709849392999,NaN,1,,
299,1,1,7350.jpg,542.724846064999,543.257704976999,544.355316323999,NaN,1,,
300,1,1,4651.jpg,544.371604022999,544.903751831,546.400221548,NaN,1,,
301,1,1,4651.jpg,546.416962006999,546.948933756999,547.248226280999,NaN,0,,
302,1,1,4608.jpg,547.264749389,547.796924397999,548.794523106,NaN,1,,
303,1,1,5628.jpg,548.811196721999,549.343345735999,549.941873709,NaN,1,,
304,1,1,5622.jpg,549.95855555,550.490486953,551.388357190999,NaN,1,,
305,1,1,4611.jpg,551.406081968,551.937122248999,553.333458036999,NaN,1,,
306,1,1,7450.jpg,553.350117466,553.882652295999,556.177063169,NaN,1,,
307,1,1,4653.jpg,556.192842883,556.725886295,557.224621825,NaN,1,,
308,1,1,7340.jpg,557.242452802999,557.773345472,559.569165707,NaN,1,,
309,1,1,5270.jpg,559.601688843999,557.773345472,560.134504115,NaN,1,,
310,1,1,7460.jpg,560.1512081,560.683205227999,561.082398791999,NaN,1,,
311,1,1,4640.jpg,561.098788691999,561.630994412999,561.930342775999,NaN,1,,
312,1,1,4656.jpg,561.946894163,562.479059252,564.075110893,NaN,1,,
313,1,1,4531.jpg,564.091701277999,564.623934133,564.723714612999,NaN,1,,
314,1,1,4531.jpg,564.740329459,565.272403249999,565.970752839999,NaN,0,,
315,1,1,7430.jpg,565.988526704999,566.519674494,568.016074731999,NaN,1,,
316,1,1,4534.jpg,568.032393686999,568.564546075999,568.863926820999,NaN,1,,
317,1,1,2240.jpg,568.880657045,569.412697338999,570.310507442,NaN,1,,
318,1,1,7330.jpg,570.327066465999,570.859092298999,570.959978485,NaN,1,,
319,1,1,4608.jpg,570.974577649,571.491300824999,572.504478471999,NaN,1,,
320,1,1,4608.jpg,572.523029763999,573.054745400999,573.353433714999,NaN,0,,
321,1,1,7402.jpg,573.369977507,573.902063084999,575.099256779,NaN,1,,
322,1,1,4640.jpg,575.115945444,575.647880155999,576.845015849,NaN,1,,
323,1,1,7430.jpg,576.861696446,577.393921051,579.488903535999,NaN,1,,
324,1,1,7330.jpg,579.505552858,580.037541435999,581.633934370999,NaN,1,,
325,1,1,4534.jpg,581.650439568,582.165906449,582.382076432999,NaN,1,,
326,1,1,4653.jpg,582.398672455,582.930768079999,585.025834627999,NaN,1,,
327,1,1,7340.jpg,585.060084765999,585.591176716,587.686328827,NaN,1,,
328,1,1,5622.jpg,587.702933166,588.234940312999,589.132794814999,NaN,1,,
329,1,1,7351.jpg,589.149454229999,588.234940312999,589.681434115,NaN,1,,
330,1,1,1720.jpg,589.698110316,588.234940312999,590.230307219999,NaN,1,,
331,1,1,7450.jpg,590.246869909999,590.778928059999,591.776684548,NaN,1,,
332,1,1,7460.jpg,591.792828795,592.325314545,593.223443322999,NaN,1,,
333,1,1,7460.jpg,593.239729285999,593.771875053,596.066581489,NaN,0,,
334,1,1,2240.jpg,596.082954193,596.615186716999,599.009548283999,NaN,1,,
335,1,1,2240.jpg,599.02609171,599.558264289,601.753071383,NaN,0,,
336,1,1,4611.jpg,601.769191092999,602.285167402999,603.300461829,NaN,1,,
337,1,1,4656.jpg,603.315894584999,602.285167402999,603.848208916999,NaN,1,,
338,1,1,4651.jpg,603.864051339,604.396927659,605.994199667,NaN,1,,
339,1,1,7350.jpg,606.009112669,606.525163238999,606.941916878999,NaN,1,,
340,1,1,5628.jpg,606.95735128,607.473104707,609.385155448999,NaN,1,,
341,1,1,7230.jpg,609.401584642999,609.933738586,610.033568589999,NaN,1,,
342,1,1,5270.jpg,610.050200766,610.58236534,611.980043407999,NaN,1,,
343,1,1,4531.jpg,611.995690397,612.527734088,613.526355942,NaN,1,,
344,1,1,7340.jpg,613.541958696,612.527734088,614.073945823,NaN,1,,
345,1,1,7340.jpg,614.091892271999,614.622744332,615.620385476999,NaN,0,,
346,1,1,7350.jpg,615.637013609999,616.152486427,617.964763878999,NaN,1,,
347,1,1,7402.jpg,617.981395434999,618.496951675999,618.712894120999,NaN,1,,
348,1,1,7351.jpg,618.729737666999,619.261889672,620.957714238,NaN,1,,
349,1,1,4531.jpg,620.974504264999,621.506612662,621.806904932999,NaN,1,,
350,1,1,4640.jpg,621.82232388,622.354620799,624.848626817,NaN,1,,
351,1,1,4651.jpg,624.864643552,625.397459792999,626.793960577999,NaN,1,,
352,1,1,4651.jpg,626.811684459,627.342682947999,627.442783155999,NaN,0,,
353,1,1,4608.jpg,627.459687962999,627.991232824999,629.986524696,NaN,1,,
354,1,1,5622.jpg,630.002432727,630.535238418999,632.929418768999,NaN,1,,
355,1,1,7450.jpg,632.945459697999,633.478219528,635.573339552999,NaN,1,,
356,1,1,2240.jpg,635.590101526999,636.122066062,638.416655605999,NaN,1,,
357,1,1,1720.jpg,638.433212098,638.965312007,639.763543079,NaN,1,,
358,1,1,7230.jpg,639.780077162,640.312159371999,642.408261426999,NaN,1,,
359,1,1,5270.jpg,642.423744189,642.95596736,644.052829021,NaN,1,,
360,1,1,4534.jpg,644.069325983999,644.602125936999,646.39790792,NaN,1,,
361,1,1,4656.jpg,646.414543622999,646.946445152,647.047452839,NaN,1,,
362,1,1,7430.jpg,647.062898574,647.594466556999,649.989386162999,NaN,1,,
363,1,1,5628.jpg,650.005913747,650.538004922999,651.735182942999,NaN,1,,
364,1,1,5628.jpg,651.751275158,652.284045222999,652.882554759999,NaN,0,,
365,1,1,4611.jpg,652.89910547,653.431264404999,653.630804281,NaN,1,,
366,1,1,7330.jpg,653.663584943,654.19620679,655.893155457999,NaN,1,,
367,1,1,4653.jpg,655.908899762,656.440796624,658.736493975999,NaN,1,,
368,1,1,7460.jpg,658.751707027999,659.267506757,661.179581842,NaN,1,,
369,1,1,2240.jpg,661.196182514999,661.728424020999,662.326986643,NaN,1,,
370,1,1,1720.jpg,662.343486839,662.875750363,664.472022328,NaN,1,,
371,1,1,4531.jpg,664.488470455,665.020622910999,666.019286283999,NaN,1,,
372,1,1,7350.jpg,666.034733369999,666.566850248999,668.063355848,NaN,1,,
373,1,1,4651.jpg,668.079874376999,668.612168886999,669.609808653999,NaN,1,,
374,1,1,4653.jpg,669.626325423,670.157780627,670.457802553999,NaN,1,,
375,1,1,4653.jpg,670.474652839999,671.006547247,672.603832675,NaN,0,,
376,1,1,7230.jpg,672.619299795,673.151512475,673.849795823,NaN,1,,
377,1,1,7351.jpg,673.883038651,674.415139969,674.614668748,NaN,1,,
378,1,1,7351.jpg,674.631359015,675.163258959999,676.860440384,NaN,0,,
379,1,1,7460.jpg,676.876014856,677.408007589,678.706024031999,NaN,1,,
380,1,1,4608.jpg,678.721680515999,679.253969699999,680.650453671,NaN,1,,
381,1,1,5270.jpg,680.667851102,681.19906764,681.797740028,NaN,1,,
382,1,1,5270.jpg,681.814772517,682.346527281999,682.446216225999,NaN,0,,
383,1,1,7402.jpg,682.462194484,682.995213318,683.194466964,NaN,1,,
384,1,1,7402.jpg,683.211066063999,683.743229591999,685.339366283999,NaN,0,,
385,1,1,7450.jpg,685.356020342,685.888839436999,687.683859862,NaN,1,,
386,1,1,7450.jpg,687.700480404999,688.232567699,689.429346229999,NaN,0,,
387,1,1,7330.jpg,689.446205602,689.979219359,692.473507160999,NaN,1,,
388,1,1,5622.jpg,692.489142958999,693.02120506,695.515285742,NaN,1,,
389,1,1,7340.jpg,695.549571235,696.080914577,697.178147253,NaN,1,,
390,1,1,4640.jpg,697.194161795,697.710250765,698.225788423,NaN,1,,
391,1,1,4640.jpg,698.242301724,698.77429716,699.273459440999,NaN,0,,
392,1,1,5628.jpg,699.289497935,699.821938667999,699.921723097999,NaN,1,,
393,1,1,4656.jpg,699.938031939,700.470458161999,702.166385991999,NaN,1,,
394,1,1,4534.jpg,702.18200415,700.470458161999,702.698596561,NaN,1,,
395,1,1,4534.jpg,702.715076344999,703.246660003,704.743788172,NaN,0,,
396,1,1,7430.jpg,704.760258639999,705.292367893,706.888615221,NaN,1,,
397,1,1,4611.jpg,706.904219288999,707.437246817999,709.831786020999,NaN,1,,
398,1,1,4656.jpg,709.84836075,710.380374117,711.976522224999,NaN,1,,
399,1,1,7340.jpg,711.994375335,712.525310161,714.022816020999,NaN,1,,
400,1,1,7340.jpg,714.038393628,712.525310161,714.570417421999,NaN,0,,
401,1,1,4640.jpg,714.587117816,715.119185399,716.815218644,NaN,1,,
402,1,1,7460.jpg,716.832916387999,717.363890936,717.46266709,NaN,1,,
403,1,1,7350.jpg,717.481474926,718.012275040999,720.506402341,NaN,1,,
404,1,1,4651.jpg,720.523142974,721.055404183999,722.052854256999,NaN,1,,
405,1,1,7330.jpg,722.069372063999,722.601398839999,724.098834298,NaN,1,,
406,1,1,7230.jpg,724.131970025999,724.663198414,725.661245984,NaN,1,,
407,1,1,4653.jpg,725.677372942,726.209788654,728.203948113,NaN,1,,
408,1,1,7351.jpg,728.221852508999,728.753732404,729.45200485,NaN,1,,
409,1,1,4531.jpg,729.468134478999,730.000861723,730.798813653,NaN,1,,
410,1,1,5270.jpg,730.832213991,731.363952755999,732.960364144999,NaN,1,,
411,1,1,4611.jpg,732.977187806,733.509260458999,734.707425786999,NaN,1,,
412,1,1,5622.jpg,734.723068911999,733.509260458999,735.254962904,NaN,1,,
413,1,1,5628.jpg,735.271686320999,735.804022191,737.998620443999,NaN,1,,
414,1,1,5628.jpg,738.015290992,738.547318531,740.542604671,NaN,0,,
415,1,1,7430.jpg,740.559130911,741.091293353,742.887289836999,NaN,1,,
416,1,1,4608.jpg,742.903736762999,743.435693858999,745.033060963,NaN,1,,
417,1,1,2240.jpg,745.06526234,745.597356281,748.091388344999,NaN,1,,
418,1,1,7402.jpg,748.108929316,748.640188947,750.734873967,NaN,1,,
419,1,1,7450.jpg,750.751495605,748.640188947,751.284037174,NaN,1,,
420,1,1,4534.jpg,751.300659258,751.832764605,753.628498405,NaN,1,,
421,1,1,1720.jpg,753.644921793999,754.177132532999,754.975279246,NaN,1,,
422,1,1,7402.jpg,754.991969773,755.524043493999,757.419578859999,NaN,1,,
423,1,1,5628.jpg,757.436109826,757.968264796,758.268526496999,NaN,1,,
424,1,1,2240.jpg,758.284137258999,758.816077021,760.711667706,NaN,1,,
425,1,1,4640.jpg,760.728254623,761.260447547,762.058562298,NaN,1,,
426,1,1,7450.jpg,762.075338536,762.607257579999,763.904224522999,NaN,1,,
427,1,1,7430.jpg,763.920890809,764.453037772,766.748578446999,NaN,1,,
428,1,1,7460.jpg,766.765172292,767.295586414999,769.590698280999,NaN,1,,
429,1,1,1720.jpg,769.608499193999,770.139609255999,771.83656872,NaN,1,,
430,1,1,4531.jpg,771.852139613,772.367666336999,773.780918902999,NaN,1,,
431,1,1,5270.jpg,773.798364995,774.329511648999,776.225141378,NaN,1,,
432,1,1,4608.jpg,776.242822275999,776.773746741999,778.868756546999,NaN,1,,
433,1,1,4653.jpg,778.885639741,779.417034636999,780.613625931999,NaN,1,,
434,1,1,4611.jpg,780.631349744999,781.163461373999,782.361989535,NaN,1,,
435,1,1,7230.jpg,782.377395288999,782.90931598,783.707619878,NaN,1,,
436,1,1,4656.jpg,783.724387030999,784.256132916,786.152846625999,NaN,1,,
437,1,1,5622.jpg,786.168335519,786.700725765999,788.595995091,NaN,1,,
438,1,1,7351.jpg,788.612723226999,789.144942490999,789.244486164,NaN,1,,
439,1,1,4651.jpg,789.261113322,789.793068925999,789.892905388,NaN,1,,
440,1,1,4534.jpg,789.909718830999,790.44156282,790.641272774999,NaN,1,,
441,1,1,7330.jpg,790.657735790999,791.189958135999,792.487864799999,NaN,1,,
442,1,1,7350.jpg,792.502227714,793.017870690999,795.030892565999,NaN,1,,
443,1,1,7350.jpg,795.047469903999,795.579546781999,795.679422453,NaN,0,,
444,1,1,7340.jpg,795.695778452,795.579546781999,796.211539935999,NaN,1,,
445,1,1,4656.jpg,796.227939484999,796.759584739999,797.558297404999,NaN,1,,
446,1,1,5270.jpg,797.574894353,798.106819675999,799.802917886,NaN,1,,
447,1,1,4651.jpg,799.81955384,800.351632902,802.845660715999,NaN,1,,
448,1,1,4611.jpg,802.863513651999,803.394460165,804.491916094999,NaN,1,,
449,1,1,4608.jpg,804.508515539999,805.040571041,805.738824218,NaN,1,,
450,1,1,4608.jpg,805.755458582,806.287709103,808.184247985999,NaN,0,,
451,1,1,7430.jpg,808.199783901,808.731962286,811.126439713,NaN,1,,
452,1,1,7230.jpg,811.142850844999,811.674813254,811.774614036,NaN,1,,
453,1,1,7230.jpg,811.79238576,812.323288698,814.418120056,NaN,0,,
454,1,1,5628.jpg,814.435105998,814.967387356,816.064582605999,NaN,1,,
455,1,1,4531.jpg,816.098379235,816.629844464,818.226148049,NaN,1,,
456,1,1,2240.jpg,818.242403496999,818.774966932,820.970045926,NaN,1,,
457,1,1,4534.jpg,820.986367044999,821.518849525999,822.316528178999,NaN,1,,
458,1,1,5622.jpg,822.333127992,822.865104387,822.965892438999,NaN,1,,
459,1,1,7402.jpg,822.981597739999,823.513689063999,824.711001604999,NaN,1,,
460,1,1,4653.jpg,824.743410204999,825.27619852,826.473399000999,NaN,1,,
461,1,1,7330.jpg,826.489926531,827.005350239999,828.019661172,NaN,1,,
462,1,1,7351.jpg,828.037446393999,828.56835381,828.767969086999,NaN,1,,
463,1,1,7460.jpg,828.784623731,829.31628709,831.711044236999,NaN,1,,
464,1,1,7340.jpg,831.727913471999,832.259739600999,832.459225917,NaN,1,,
465,1,1,7450.jpg,832.476122864,833.007927093,834.404767410999,NaN,1,,
466,1,1,4640.jpg,834.420495075999,834.953317132,836.450838882,NaN,1,,
467,1,1,7350.jpg,836.465811335,834.953317132,836.998282883,NaN,1,,
468,1,1,1720.jpg,837.015082722,834.953317132,837.548316973,NaN,1,,
469,1,1,4611.jpg,837.563636686,838.09600213,838.894113663999,NaN,1,,
470,1,1,4611.jpg,838.910622489,839.442800662999,841.139975033,NaN,0,,
471,1,1,4611.jpg,841.155356982999,841.670783604,841.98692897,NaN,0,,
472,1,1,7460.jpg,842.003439213999,842.535578928,842.834966753999,NaN,1,,
473,1,1,7460.jpg,842.851346715999,843.383617525,844.28142134,NaN,0,,
474,1,1,7230.jpg,844.297964764999,844.830128436,845.528567769999,NaN,1,,
475,1,1,5270.jpg,845.545179966999,846.077158401,847.075878006999,NaN,1,,
476,1,1,5270.jpg,847.091536857,847.623476887,849.918358897999,NaN,0,,
477,1,1,5270.jpg,849.934664786,847.623476887,850.450287465999,NaN,0,,
478,1,1,4653.jpg,850.46672534,850.998920956999,851.098689164,NaN,1,,
479,1,1,4608.jpg,851.115230309999,851.647229786,853.143854710999,NaN,1,,
480,1,1,7350.jpg,853.160125019,853.692480996999,854.291236108,NaN,1,,
481,1,1,7430.jpg,854.307722322999,854.839938951,856.136792732999,NaN,1,,
482,1,1,4656.jpg,856.153694883,856.685420624,857.08482242,NaN,1,,
483,1,1,4656.jpg,857.101295688999,857.63338884,858.032604004,NaN,0,,
484,1,1,1720.jpg,858.048973055,858.581118867,859.279473896,NaN,1,,
485,1,1,2240.jpg,859.295859850999,858.581118867,859.82832395,NaN,1,,
486,1,1,5628.jpg,859.844736301,860.376916387999,861.175908959,NaN,1,,
487,1,1,4651.jpg,861.191729595999,861.723560958,862.023978718,NaN,1,,
488,1,1,5622.jpg,862.038909888999,862.55502102,863.868584181,NaN,1,,
489,1,1,4534.jpg,863.884876025,864.417201153999,864.915353618,NaN,1,,
490,1,1,7330.jpg,864.932634405999,865.464042366999,866.461596097999,NaN,1,,
491,1,1,7351.jpg,866.495640641999,867.027859005999,868.624042378,NaN,1,,
492,1,1,7450.jpg,868.640725583,869.172743789,871.167956809,NaN,1,,
493,1,1,4640.jpg,871.184765758999,871.716730368,873.911477759999,NaN,1,,
494,1,1,7402.jpg,873.927139415,874.460293570999,876.356818728,NaN,1,,
495,1,1,7340.jpg,876.372329157,876.904525517,877.603840382999,NaN,1,,
496,1,1,4531.jpg,877.619545729,878.151649456,878.450876019,NaN,1,,
497,1,1,5622.jpg,878.467453965,878.999581358999,881.294046974999,NaN,1,,
498,1,1,7350.jpg,881.311857520999,881.842897454999,884.336993573999,NaN,1,,
499,1,1,7350.jpg,884.353588267999,884.885790558999,886.981906376999,NaN,0,,
500,1,1,7430.jpg,886.997395494,887.529484081999,888.228777569999,NaN,1,,
501,1,1,7430.jpg,888.245506416,888.776662266999,888.877277381,NaN,0,,
502,1,1,4640.jpg,888.893002911,889.424406108999,890.822770676999,NaN,1,,
503,1,1,7450.jpg,890.838596448,891.370415391,893.36563099,NaN,1,,
504,1,1,7460.jpg,893.382234364,893.914347307,895.011745946,NaN,1,,
505,1,1,7340.jpg,895.028461189999,895.560624934,897.256612658,NaN,1,,
506,1,1,7402.jpg,897.273164975999,897.805326383999,899.402536456,NaN,1,,
507,1,1,4653.jpg,899.418112993999,899.950282092999,900.549040008,NaN,1,,
508,1,1,4651.jpg,900.565319269999,901.080874419,901.79583409,NaN,1,,
509,1,1,7351.jpg,901.813591073,902.344541262999,902.942927511,NaN,1,,
510,1,1,7351.jpg,902.96072943,903.491634025999,904.789630378,NaN,0,,
511,1,1,5270.jpg,904.805220197999,905.337440723,906.733822684999,NaN,1,,
512,1,1,5628.jpg,906.750771943,907.282926551999,907.981168242999,NaN,1,,
513,1,1,7230.jpg,907.997892001,908.530204593,910.624659837,NaN,1,,
514,1,1,4534.jpg,910.641739364,911.173627353999,913.368239171999,NaN,1,,
515,1,1,1720.jpg,913.385183767999,913.917280236999,914.116708201,NaN,1,,
516,1,1,4611.jpg,914.132956644,914.665380573999,916.961010038,NaN,1,,
517,1,1,4611.jpg,916.977752053999,917.508885055,919.903238486999,NaN,0,,
518,1,1,4608.jpg,919.918712852999,920.435253658999,922.448271830999,NaN,1,,
519,1,1,4531.jpg,922.462733557,922.995767463,925.490274626,NaN,1,,
520,1,1,2240.jpg,925.506407677,926.022079937,926.238264255999,NaN,1,,
521,1,1,4656.jpg,926.255096994,926.786984549999,927.585050969999,NaN,1,,
522,1,1,7330.jpg,927.601681213999,928.133818344999,929.330933629999,NaN,1,,
523,1,1,7330.jpg,929.34757364,929.880077315,931.875031326999,NaN,0,,
524,1,1,7230.jpg,931.891569339999,932.423567828,934.618244973,NaN,1,,
525,1,1,7330.jpg,934.636115427,935.167007597,935.565533752,NaN,1,,
526,1,1,4656.jpg,935.583099703999,936.114946050999,937.511668776,NaN,1,,
527,1,1,7430.jpg,937.545062109999,938.077014585999,938.276485860999,NaN,1,,
528,1,1,7430.jpg,938.294236992999,938.825301331999,939.224178114,NaN,0,,
529,1,1,7430.jpg,939.242006020999,939.772819763999,940.870305897999,NaN,0,,
530,1,1,7430.jpg,940.886939410999,941.418983472,942.517725013,NaN,0,,
531,1,1,5622.jpg,942.54997607,943.081952679,943.879977523,NaN,1,,
532,1,1,7460.jpg,943.896003231999,944.428694058999,946.723281932,NaN,1,,
533,1,1,7460.jpg,946.740199272999,947.272060555,948.169886225,NaN,0,,
534,1,1,4608.jpg,948.186413329,948.718609984,949.416928441,NaN,1,,
535,1,1,4653.jpg,949.433661046,948.718609984,949.965644697,NaN,1,,
536,1,1,7450.jpg,949.982505509,950.514231973,951.213819756,NaN,1,,
537,1,1,7450.jpg,951.229250001999,951.761512977,952.261286757999,NaN,0,,
538,1,1,7351.jpg,952.276444228999,952.809478943,954.704459799999,NaN,1,,
539,1,1,5270.jpg,954.721085106999,955.253197352,955.851762056,NaN,1,,
540,1,1,5628.jpg,955.868368813999,956.400296219999,958.196253320999,NaN,1,,
541,1,1,5628.jpg,958.212802202999,958.72820632,960.840018547,NaN,0,,
542,1,1,2240.jpg,960.856630864,961.388783585999,961.688262804999,NaN,1,,
543,1,1,4651.jpg,961.70470586,962.237601007,964.231917458999,NaN,1,,
544,1,1,7402.jpg,964.248524724999,964.781444651,966.975638759999,NaN,1,,
545,1,1,4531.jpg,966.992113275999,967.524250381,968.620971938999,NaN,1,,
546,1,1,1720.jpg,968.637921582,969.170455395,971.266315618999,NaN,1,,
547,1,1,7350.jpg,971.281899215999,971.813894565999,973.310618706999,NaN,1,,
548,1,1,7350.jpg,973.326751320999,973.859430635999,974.75728254,NaN,0,,
549,1,1,7350.jpg,974.773892490999,973.859430635999,975.30591879,NaN,0,,
550,1,1,4534.jpg,975.322458343,975.854596986999,978.348719325999,NaN,1,,
551,1,1,7340.jpg,978.365456562,978.897448968,980.792887696,NaN,1,,
552,1,1,4640.jpg,980.809532059,981.341686676,982.239046826999,NaN,1,,
553,1,1,4611.jpg,982.256317092,982.788211865,982.987741937999,NaN,1,,
