Trial,nBack,Valence,Image,imagePresentationTime,NoisePresentationTime,x,RT,Accuracy,Clock_1,Clock_2,dataOneMinPress_1,dataOneMinPress_2
1,1,2,081.jpg,0.00671725842175874,0.524340401870631,2.42998030888157,NaN,1,,,,
2,1,2,078.jpg,2.44175120846967,2.95939910543211,4.95940574661881,NaN,1,,,,
3,1,2,003.jpg,4.97116759004348,5.48882454316936,5.5829386103801,NaN,1,,,,
4,1,2,013.jpg,5.59469954818815,6.11235559569786,6.60646924028742,NaN,1,,,,
5,1,2,009.jpg,6.61823138558429,7.13590765852587,8.23000904710761,NaN,1,,,,
6,1,2,079.jpg,8.24176998491566,8.75945863461448,8.85353828840334,NaN,1,,,,
7,1,2,085.jpg,8.86530284867695,9.38295829244225,10.7829593791821,NaN,1,,,,
8,1,2,076.jpg,10.7947233357113,11.3124014198856,11.7123738287742,NaN,1,,,,
9,1,2,076.jpg,11.7241389927917,12.2417926253247,14.641800655123,1.12949830966727,1,,,,
10,1,2,084.jpg,14.6535640079078,15.1712182441852,15.7712165537014,NaN,1,,,,
11,1,2,014.jpg,15.7829802083584,16.3006353502519,16.7006319089096,NaN,1,,,,
12,1,2,008.jpg,16.7123964691832,17.2300654971941,18.1241690592551,NaN,1,,,,
13,1,2,089.jpg,18.1359330157843,18.6535872520612,20.9477097113167,NaN,1,,,,
14,1,2,012.jpg,20.9594748753343,21.4771300172279,23.2771330963237,NaN,1,,,,
15,1,2,087.jpg,23.2888994678297,23.8065540059788,25.1006710315364,NaN,1,,,,
16,1,2,001.jpg,25.1124352899378,25.6300895262148,27.6300940542965,NaN,1,,,,
17,1,2,007.jpg,27.6418586145701,28.1595140583358,29.8536333781212,NaN,1,,,,
18,1,2,082.jpg,29.8653979383948,30.3830521746718,32.6771776526484,1.03537850688599,0,,,,
19,1,2,010.jpg,32.6889425147942,33.2065955435828,35.1007175198429,NaN,1,,,,
20,1,2,086.jpg,35.1124823819887,35.63013722201,36.3242517118415,NaN,1,,,,
21,1,2,077.jpg,36.3360099328002,36.8536711121365,37.1477854208447,NaN,1,,,,
22,1,2,083.jpg,37.1595614522585,37.6772054248836,38.8772059682533,NaN,1,,,,
23,1,2,083.jpg,38.8889696229107,37.6772054248836,39.4066223498271,NaN,0,,,,
24,1,2,002.jpg,39.4183820801468,39.9360402407615,40.3360367994192,0.0471083518655178,0,,,,
25,1,2,002.jpg,40.3478137364496,40.8654583128186,42.9595790212161,0.647130811151328,1,,,,
26,1,2,090.jpg,42.9713435814892,43.4889975158944,45.6890031910903,NaN,1,,,,
27,1,2,004.jpg,45.7007677513639,46.2184186670474,48.4184711324219,NaN,1,47.724387735419,,,
28,1,2,080.jpg,48.4301928268546,48.9478470631316,51.4419730844779,NaN,1,,,,
29,1,2,006.jpg,51.4537385503681,51.9713915791567,52.5713907942891,NaN,1,,,,
30,1,2,011.jpg,52.5831547508183,53.1008098927118,53.994927039018,NaN,1,,,,
31,1,2,011.jpg,54.0066915992916,54.5243464393129,54.7243415489843,0.600084343070193,1,,,,
32,1,2,088.jpg,54.7361064111301,55.2537760428854,55.6537608285303,NaN,1,,,,
33,1,2,088.jpg,55.6655480292129,56.1831778138485,56.6772935715426,0.470656973351652,1,,,,
34,1,2,015.jpg,56.7008251070665,57.2184730040294,59.3125994479969,NaN,1,,,,
35,1,2,015.jpg,59.3243637063979,59.8420197539081,61.3361406434283,0.635404890509562,1,,,,
36,1,2,005.jpg,61.3596884800468,61.8773236983802,61.9714368599748,NaN,1,,,,
37,1,2,078.jpg,61.9832053445857,62.5008511284432,63.1949719575896,NaN,1,,,,
38,1,2,010.jpg,-0.424076293952567,-1.12996198524434,0.0935737161148609,NaN,1,,,63.4773742317734,0.152568584590881
39,1,2,003.jpg,0.105342502597978,0.622993720154227,2.51711630015825,NaN,1,,,,
40,1,2,084.jpg,2.52888055855965,3.04653690794157,3.54065055253159,NaN,1,,,,
41,1,2,086.jpg,3.55241360344417,4.07006965095388,4.96418830662105,NaN,1,,,,
42,1,2,088.jpg,4.97594984817306,5.49360499006661,7.69364990863824,NaN,1,,,,
43,1,2,001.jpg,7.70541416703963,8.22304878162868,10.5171567510224,NaN,1,,,,
44,1,2,089.jpg,10.5289415367283,11.0465785662946,12.4465766343128,NaN,1,,,,
45,1,2,005.jpg,12.4583408927142,12.9759975439683,14.0701146299002,NaN,1,,,,
46,1,2,087.jpg,14.0818794920456,14.5995358414275,15.5995352376835,NaN,1,,,,
47,1,2,002.jpg,15.6112982885961,16.1289679203514,18.0230772179825,NaN,1,,,,
48,1,2,002.jpg,18.0348420801283,18.5524999388708,20.0466181115421,0.9530253774833,1,,,,
49,1,2,090.jpg,20.0583811624551,20.5877966384123,20.6701491640706,NaN,1,,,,
50,1,2,082.jpg,20.6819137243442,21.1995685643656,22.5995705567216,NaN,1,,,,
51,1,2,077.jpg,22.6113357207391,23.1289736559215,25.1289962963306,NaN,1,,,,
52,1,2,085.jpg,25.1525405104835,25.6701811625153,28.0701879848252,NaN,1,,,,
53,1,2,004.jpg,28.081952846971,28.5996131206903,30.0937276708964,NaN,1,,,,
54,1,2,076.jpg,30.1172733944099,28.5996131206903,30.6349068015106,NaN,1,,,,
55,1,2,009.jpg,30.6466798142037,31.164339484179,32.6585159181695,NaN,1,,,,
56,1,2,013.jpg,32.681988890502,33.1996316556388,34.0937494056889,NaN,1,,,,
57,1,2,015.jpg,34.1055526055939,34.623171824705,35.5172865560344,NaN,1,,,,
58,1,2,015.jpg,35.529051116308,36.0467074656899,36.9408231026355,0.894240310130954,1,,,,
59,1,2,083.jpg,36.9643573550084,37.482020345577,38.282009538555,NaN,1,,,,
60,1,2,011.jpg,38.2937734950842,37.482020345577,38.8114195808139,NaN,1,,,,
61,1,2,079.jpg,38.8349677193046,39.3526044469986,41.152609639199,NaN,1,,,,
62,1,2,012.jpg,41.1761447971885,41.7055829135547,43.9879184739998,NaN,1,,,,
63,1,2,012.jpg,43.9996830342734,44.5173387799114,45.3173382365412,0.847147957487778,1,,,,
64,1,2,006.jpg,45.3291034005592,45.846759448069,46.8467591461967,NaN,1,,,,
65,1,2,081.jpg,46.8702855498946,47.3879385786831,48.9879453406188,NaN,1,,,,
66,1,2,014.jpg,48.9997180514392,49.5173768157983,52.0114907622601,NaN,1,,,,
67,1,2,007.jpg,52.0350232034002,49.5173768157983,52.5527142680762,NaN,1,,,,
68,1,2,008.jpg,52.5644477355213,53.0821001605655,55.5762153145156,NaN,1,,,,
69,1,2,080.jpg,55.5879910440576,56.1056356204272,57.1056377335317,NaN,1,,,,
70,1,2,085.jpg,57.1174122555854,57.6350541151055,59.235108572836,NaN,1,,,,
71,1,2,082.jpg,59.2468233242093,59.7644820885685,62.0586036422078,NaN,1,,,,
72,1,2,007.jpg,62.0703697118415,62.5880206275256,64.1880252763563,NaN,1,63.8234045077352,,,
73,1,2,007.jpg,-0.0824922924502971,0.435141416522583,2.63514346925331,NaN,0,,,64.2822066610497,
74,1,2,089.jpg,2.64691316135259,3.16457705753783,4.96456715613203,NaN,1,,,,
75,1,2,009.jpg,4.97635163996529,5.4939904807643,6.98810925717999,NaN,1,,,,
76,1,2,011.jpg,6.9998741193258,7.51756307089681,9.31753294405917,NaN,1,,,,
77,1,2,015.jpg,9.32929720246057,9.84697347540214,11.0469543970844,NaN,1,,,,
78,1,2,088.jpg,11.058779633654,9.84697347540214,11.5763680618088,NaN,1,,,,
79,1,2,090.jpg,11.5881407726297,12.1058125174895,12.5057840207614,NaN,1,,,,
80,1,2,005.jpg,12.5175549203495,13.0352052322892,14.0352058360331,NaN,1,,,,
81,1,2,078.jpg,14.0469746225162,14.5646400280621,16.7646333265006,NaN,1,,,,
82,1,2,002.jpg,16.776401811112,17.2940527267956,18.3881719258325,NaN,1,,,,
83,1,2,079.jpg,18.3999364861056,18.9175922317436,21.1175985106838,NaN,1,,,,
84,1,2,080.jpg,21.1293621653408,21.6470194203389,22.6470154960016,NaN,1,,,,
85,1,2,083.jpg,22.6587824712519,23.1764379150172,25.5764453410716,NaN,1,,,,
86,1,2,083.jpg,25.588207486368,26.1058774199955,28.305896679437,0.729516240870908,1,,,,
87,1,2,014.jpg,28.3176606359661,28.8353230227904,29.1294276715907,NaN,1,,,,
88,1,2,001.jpg,29.1411771382582,29.658853109328,32.1529540752886,NaN,1,,,,
89,1,2,001.jpg,32.1647177299456,32.6823722680952,34.37649581409,0.576555524395644,1,,,,
90,1,2,003.jpg,34.3882639968292,34.90591310128,36.1059160596269,NaN,1,,,,
91,1,2,012.jpg,36.1176854498544,36.6353366674102,37.7294694506923,NaN,1,,,,
92,1,2,013.jpg,37.7412234454414,38.2588900584756,38.9529915678058,NaN,1,,,,
93,1,2,081.jpg,38.9647808815935,39.4824082512519,39.9765551017745,NaN,1,,,,
94,1,2,076.jpg,39.9883190583037,40.5059826526167,40.9059357416891,NaN,1,,,,
95,1,2,087.jpg,40.9177341116401,41.4353632925313,42.8353888309125,NaN,1,41.0001364461982,,,
96,1,2,087.jpg,42.8471307507771,43.3647852889262,45.164791084871,1.05897705802045,1,,,,
97,1,2,008.jpg,45.1765592676097,45.6942116926543,46.7883299860746,NaN,1,,,,
98,1,2,084.jpg,46.8001105455705,47.3177472732646,49.0118708192599,NaN,1,,,,
99,1,2,086.jpg,49.0236405113592,49.5412905214266,51.7412983097274,NaN,1,,,,
100,1,2,010.jpg,51.7530713224201,52.2707177100219,53.4707218758572,NaN,1,,,,
101,1,2,077.jpg,53.4824885492358,54.000140370536,54.2942528680114,NaN,1,,,,
102,1,2,004.jpg,54.3060370499729,54.8236740795392,56.5177943049407,NaN,1,,,,
103,1,2,006.jpg,56.529565506401,54.8236740795392,57.0472091771539,NaN,1,,,,
104,1,2,088.jpg,57.0589737374271,57.5766457841596,59.5766358223796,NaN,1,,,,
105,1,2,079.jpg,59.5883985714204,60.1060582413957,60.7061048504511,NaN,1,,,,
106,1,2,081.jpg,60.7178884286682,61.2354937616615,61.3413521637135,NaN,1,,,,
107,1,2,003.jpg,-2.12962841655099,-1.61197206716906,0.188034030647486,NaN,1,,,63.3297023148457,0.152804648589154
108,1,2,008.jpg,0.199797685304929,0.717470033909194,1.51745258570054,NaN,1,,,,
109,1,2,082.jpg,1.52922227779982,2.04687138225108,3.54099317738792,NaN,1,,,,
110,1,2,007.jpg,3.55276045451046,4.07043038813799,4.36454318748565,NaN,1,,,,
111,1,2,076.jpg,4.37629054104809,4.89394839979059,6.58806953080921,NaN,1,,,,
112,1,2,005.jpg,6.59983801542012,7.1175016097327,8.41159931547463,NaN,1,,,,
113,1,2,090.jpg,8.42336810195775,8.94102807380523,10.0351466690977,NaN,1,,,,
114,1,2,004.jpg,10.0469106256269,10.564580559254,10.8586815855892,NaN,1,,,,
115,1,2,004.jpg,10.8704455421184,11.3881251356534,12.882222781021,0.753028456579159,1,,,,
116,1,2,015.jpg,12.8939915675041,13.4116536524562,15.4116467093972,NaN,1,,,,
117,1,2,083.jpg,15.4234209295787,15.941067920925,17.9411168242086,NaN,1,,,,
118,1,2,089.jpg,17.9528481785487,18.4704915474294,20.1646144896804,NaN,1,,,,
119,1,2,087.jpg,20.1763802574424,20.6940450592438,22.3881477760624,NaN,1,,,,
120,1,2,009.jpg,22.3999382973384,22.9175813643469,23.7175778022561,NaN,1,,,,
121,1,2,084.jpg,23.7293405512969,24.2470153148779,26.1411209900439,NaN,1,,,,
122,1,2,086.jpg,26.1528864559336,26.6705425034434,28.270574622637,NaN,1,,,,
123,1,2,011.jpg,28.28232348556,28.7999620244868,30.494087381715,NaN,1,,,,
124,1,2,085.jpg,30.5058537532213,31.0235082913705,32.7176297242609,NaN,1,,,,
125,1,2,002.jpg,32.741159448552,33.2588269672024,34.2588148923173,NaN,1,,,,
126,1,2,078.jpg,34.2705833769287,34.7882345944845,35.08235705374,NaN,1,,,,
127,1,2,013.jpg,35.1059003622763,35.6235337693774,37.3176545985234,NaN,1,,,,
128,1,2,001.jpg,37.3294224793904,37.8470724894578,38.4470747233113,NaN,1,,,,
129,1,2,077.jpg,38.4588386798405,38.9764926142457,39.7765340311003,NaN,1,,,,
130,1,2,012.jpg,39.7882729322437,40.3059253572883,42.400102817644,NaN,1,,,,
131,1,2,006.jpg,42.4118565105209,42.9294606360263,43.2235710203968,NaN,1,,,,
132,1,2,080.jpg,43.2353395050081,43.7529916281801,43.953029905565,NaN,1,,,,
133,1,2,010.jpg,43.9647618636495,44.4824254579626,46.3765311331281,NaN,1,,,,
134,1,2,010.jpg,46.3882950896573,46.9059499296786,47.8000682834736,0.576663292742523,1,,,,
135,1,2,014.jpg,47.8118367680845,48.3294885893847,49.7294914873569,NaN,1,,,,
136,1,2,005.jpg,49.7412551420139,50.2589126988846,51.3530623870051,NaN,1,,,,
137,1,2,001.jpg,51.3648009862764,51.8824793723229,52.6824495473575,NaN,1,,,,
138,1,2,001.jpg,52.6942147113755,53.2118819281536,54.5060409139355,0.694204145851018,1,,,,
139,1,2,086.jpg,54.5178069835697,55.0354068828651,56.5412947476361,NaN,1,,,,
140,1,2,077.jpg,56.5530593079097,57.0707126385705,58.3648363053144,NaN,1,,,,
141,1,2,077.jpg,58.3765984506108,58.8942560074815,59.1884219363224,NaN,0,,,,
142,1,2,007.jpg,59.2001837797466,59.717787905252,62.1178439327173,NaN,1,,,,
143,1,2,085.jpg,-1.04723936436631,-0.529617730278005,0.764502615872971,NaN,1,,,63.0237730332201,0.152825477765418
144,1,2,002.jpg,0.776265968657754,1.29392020493469,1.6939185748256,NaN,1,,,,
145,1,2,084.jpg,1.70568222948259,2.2233406919695,2.51746858492288,NaN,1,,,,
146,1,2,089.jpg,2.52921563661357,3.04687258973991,3.1409872606946,NaN,1,,,,
147,1,2,079.jpg,3.15275423594494,3.67041692464136,4.56452109044631,NaN,1,,,,
148,1,2,014.jpg,4.57628565071991,5.09394290571845,7.58811179290615,NaN,1,,,,
149,1,2,014.jpg,7.59985703336361,8.11749013859253,10.0116124167248,0.976537895063757,1,,,,
150,1,2,083.jpg,10.0233821088241,10.5410466087533,12.5410595892545,NaN,1,,,,
151,1,2,009.jpg,12.5528033203518,13.0704584622454,15.5645859929523,NaN,1,,,,
152,1,2,078.jpg,15.5763517607143,16.0940017707817,17.3881652846458,NaN,1,,,,
153,1,2,078.jpg,17.3999301467911,17.9175484602861,19.8116698328022,0.658872127271934,1,,,,
154,1,2,006.jpg,19.8234352986919,20.3411532299865,22.5410976251419,NaN,1,,,,
155,1,2,011.jpg,22.5528655060084,23.0705152142036,25.2705242099928,NaN,1,,,,
156,1,2,087.jpg,25.2822920908598,25.7999584020217,26.4940976453672,NaN,1,,,,
157,1,2,004.jpg,26.5058175285667,27.0234799153914,27.1175927751133,NaN,1,,,,
158,1,2,004.jpg,27.1293585428753,27.6470130810244,30.0470223183115,NaN,0,,,,
159,1,2,088.jpg,30.0705517407305,30.5882056751352,32.6823321191027,NaN,1,,,,
160,1,2,088.jpg,32.6940966793763,33.2117518212699,35.011815878534,0.811911934242744,1,,,,
161,1,2,090.jpg,35.0235384785824,35.541188790522,35.7411727309254,NaN,1,,,,
162,1,2,015.jpg,35.7529421211525,36.2705924330921,36.964709639773,NaN,1,,,,
163,1,2,012.jpg,36.9764781243839,37.4941263232186,39.4941679815711,NaN,1,,,,
164,1,2,010.jpg,39.5059059770979,40.0235677601781,41.517674159837,NaN,1,,,,
165,1,2,010.jpg,41.5294332864123,42.0471149930522,43.7412213323369,1.00009901405519,1,,,,
166,1,2,076.jpg,43.752988005715,44.2706401288874,46.0706444154712,NaN,1,,,,
167,1,2,080.jpg,46.0824138056987,46.6000701550806,49.0941922520897,NaN,1,,,,
168,1,2,082.jpg,49.1059610385728,49.6236273497348,50.9177338097679,NaN,1,,,,
169,1,2,008.jpg,50.9294992756577,51.447148380109,53.6471703563993,NaN,1,,,,
170,1,2,081.jpg,53.6589276717418,54.1766151139523,56.0707032805349,NaN,1,,,,
171,1,2,003.jpg,56.082474180123,56.6001395856683,59.0001331256049,NaN,1,,,,
172,1,2,013.jpg,59.0236616424077,59.541318595534,60.8354377341961,NaN,1,,,,
173,1,2,090.jpg,60.8472013888531,61.3648556251301,61.8589822502213,NaN,1,,,,
174,1,2,090.jpg,61.8707528479367,62.3883910849918,63.4825265851227,0.705954820007264,1,,,,
175,1,2,080.jpg,-1.37672644439044,-0.859068283775741,0.235048500283938,NaN,1,,,64.8709315562323,
176,1,2,012.jpg,0.246813060557542,0.764472730532816,1.76446971181167,NaN,1,,,,
177,1,2,081.jpg,1.77623185710809,2.29388820649001,2.98804797713956,NaN,1,,,,
178,1,2,076.jpg,2.99982370668158,3.51742964341975,5.82331696482061,NaN,1,,,,
179,1,2,013.jpg,5.83507880824482,6.35273787447613,7.15273431238484,NaN,1,,,,
180,1,2,085.jpg,7.17626826288597,7.69391917856956,8.18803282315912,NaN,1,,,,
181,1,2,087.jpg,8.19979828904934,8.71745524217522,10.2116048095472,NaN,1,,,,
182,1,2,014.jpg,10.2233621248897,10.7410320585172,12.6351196213559,NaN,1,,,,
183,1,2,010.jpg,12.6468838797568,13.1645396253948,15.5645712012183,NaN,1,,,,
184,1,2,007.jpg,15.5763659487038,16.0939688667208,18.2939914467552,NaN,1,,,,
185,1,2,004.jpg,18.3057487620977,18.8234090358173,20.6234030587493,NaN,1,,,,
186,1,2,086.jpg,20.6469312736799,21.1645909436552,23.1645915473996,NaN,1,,,,
187,1,2,086.jpg,23.1763567114172,23.6940151739041,23.9881249545306,NaN,0,,,,
188,1,2,078.jpg,23.9998961559904,24.5175570334545,26.9175551014728,0.0118345946052614,0,,,,
189,1,2,001.jpg,26.9293247935721,27.4469977459207,29.846985248415,NaN,1,29.0588252163443,,,
190,1,2,077.jpg,29.8588035419257,30.3764043468377,30.7764009054954,NaN,1,,,,
191,1,2,079.jpg,30.7881687863623,31.3058453611761,32.1058197624207,NaN,1,,,,
192,1,2,002.jpg,32.1175873414154,32.6352512376002,34.235246226523,NaN,1,,,,
193,1,2,015.jpg,34.2470128999012,34.7646647212014,36.7646985308788,NaN,1,,,,
194,1,2,005.jpg,36.7764555443491,37.294090762683,37.7882041054004,NaN,1,,,,
195,1,2,083.jpg,37.7999762124768,38.3176696921296,40.8117552626122,NaN,1,,,,
196,1,2,011.jpg,40.8235231434787,41.3411734554184,43.8353000805091,NaN,1,,,,
197,1,2,008.jpg,43.8470691688644,44.3647209901646,45.2588375327268,NaN,1,,,,
198,1,2,006.jpg,45.2706078285705,45.7882533105562,46.1882519823189,NaN,1,,,,
199,1,2,084.jpg,46.2000240893954,46.7176882874523,46.9176719259831,NaN,1,,,,
200,1,2,089.jpg,46.9294696921902,47.4470889113013,48.1412227209485,NaN,1,,,,
201,1,2,089.jpg,48.152977923186,48.670631555719,49.2706262427696,0.941259609721783,1,,,,
202,1,2,082.jpg,49.2823950292527,49.8000471524251,49.8941591065309,NaN,1,,,,
203,1,2,088.jpg,49.9059281948862,50.423578808698,52.0236344739169,NaN,1,,,,
204,1,2,009.jpg,52.0354026566556,52.5530200645339,54.1530072047817,NaN,1,,,,
205,1,2,003.jpg,54.1647765950092,54.6824275106928,56.1765477964691,NaN,1,,,,
206,1,2,014.jpg,56.1883105455099,54.6824275106928,56.7059620649379,NaN,1,,,,
207,1,2,009.jpg,56.7177269270837,57.235382370849,57.3294955324436,NaN,1,,,,
208,1,2,076.jpg,57.3412652245429,57.8589297244721,59.7530408333359,NaN,1,,,,
209,1,2,010.jpg,-0.80034902454554,-0.282693882651984,0.117346145591,NaN,1,,,60.4119669957172,0.152884946573522
210,1,2,077.jpg,0.129079914908289,0.646725396893999,1.44672213667491,NaN,1,,,,
211,1,2,006.jpg,1.45848790443688,1.97614093322545,4.37615107612874,NaN,1,,,,
212,1,2,085.jpg,4.38792167384463,4.9055876831344,6.10557464225894,NaN,1,,,,
213,1,2,090.jpg,6.12910164970071,6.64675769721089,8.84676759861622,NaN,1,,,,
214,1,2,008.jpg,8.85853064952926,9.37622744977534,11.270308673299,NaN,1,,,,
215,1,2,008.jpg,11.2820753466772,11.7997304885707,12.8938490838632,0.658924653020676,1,,,,
216,1,2,079.jpg,12.905611832904,13.4232645598204,13.8232626278391,NaN,1,,,,
217,1,2,005.jpg,13.8350283956011,14.3527040647987,16.6468111285758,NaN,1,,,,
218,1,2,087.jpg,16.6585775000822,17.1762284157658,18.6703517202636,NaN,1,,,,
219,1,2,082.jpg,18.682116582409,19.1997841010593,19.5997691885768,NaN,1,,,,
220,1,2,013.jpg,19.6115382769322,20.1291888907435,20.6233819277008,NaN,1,,,,
221,1,2,089.jpg,20.6351060371103,21.1527385385948,23.3527321389056,NaN,1,,,,
222,1,2,007.jpg,23.3645009253887,23.8821530485611,24.3762675987673,NaN,1,,,,
223,1,2,080.jpg,24.3880707986718,24.905702092668,25.7998050509846,NaN,1,,,,
224,1,2,012.jpg,25.811575044956,26.3292322999546,26.62333906186,NaN,1,,,,
225,1,2,012.jpg,26.6351048296219,26.3292322999546,27.1527527265844,NaN,0,,,,
226,1,2,001.jpg,27.1645224186836,27.6821736362399,29.6821808811706,NaN,1,,,,
227,1,2,001.jpg,29.693945139572,30.2116129600945,30.7057160391601,0.905969249494774,1,,,,
228,1,2,081.jpg,30.71750716418,31.2351511368051,31.4351571138732,NaN,1,,,,
229,1,2,078.jpg,31.4469150329596,31.9645508550375,32.2586657674901,NaN,1,,,,
230,1,2,084.jpg,32.2704297240193,32.788089997739,33.4822035819543,NaN,1,,,,
231,1,2,015.jpg,33.4939729721814,34.011633849645,35.6116261217189,NaN,1,,,,
232,1,2,015.jpg,35.6234063793427,36.1410618231084,37.9410546385516,1.55301915891778,1,,,,
233,1,2,002.jpg,37.9528201044418,38.4704710201254,40.2704771179424,NaN,1,,,,
234,1,2,088.jpg,40.2822413763433,40.7999209698787,41.999899778456,NaN,1,,,,
235,1,2,011.jpg,42.0116670555785,42.5293191787509,43.9293223785953,NaN,1,,,,
236,1,2,086.jpg,43.9410917688224,44.4587423826342,45.6587441334927,NaN,1,,,,
237,1,2,004.jpg,45.6705105049987,44.4587423826342,46.1881556851122,NaN,1,,,,
238,1,2,083.jpg,46.2116872206361,46.7293613804732,48.4234653047806,NaN,1,,,,
239,1,2,003.jpg,48.435229563182,46.7293613804732,48.9528783657606,NaN,1,,,,
240,1,2,013.jpg,48.9646438316508,49.4823016903933,51.8823106258078,NaN,1,,,,
241,1,2,011.jpg,51.8940721673603,52.4117411953712,54.2117346145592,NaN,1,,,,
242,1,2,090.jpg,54.223497967344,54.7411549204703,54.8352656670872,NaN,1,,,,
243,1,2,078.jpg,54.8470302273608,55.3646880861033,55.7646828335287,NaN,1,,,,
244,1,2,086.jpg,55.7764473938018,56.2941079693937,56.8941041658049,NaN,1,,,,
245,1,2,009.jpg,56.9058744616486,57.4235223586111,59.0235254980812,NaN,1,,,,
246,1,2,009.jpg,-0.329939284460124,0.187718574282371,1.28183656583042,NaN,0,59.0588886094893,,59.3648040049975,
247,1,2,080.jpg,1.29360444669737,1.81125536238096,2.81127045598714,NaN,1,,,,
248,1,2,081.jpg,2.8230489023781,3.34067778139706,5.03479861054302,NaN,1,,,,
249,1,2,002.jpg,5.04656015209548,5.56422797261803,7.45834149645862,NaN,1,,,,
250,1,2,084.jpg,7.47010575486001,7.9877633117303,8.8818801561647,NaN,1,,,,
251,1,2,088.jpg,8.89364320707728,9.41130227330859,11.61130734476,NaN,1,,,,
252,1,2,088.jpg,11.6230700938008,12.140724028206,14.3407387595653,1.52950181138385,1,,,,
253,1,2,082.jpg,14.3525175078285,14.8701524242897,15.8701509149291,NaN,1,,,,
254,1,2,077.jpg,15.88192362575,16.3995745414336,17.5995771979083,NaN,1,,,,
255,1,2,008.jpg,17.6113429656702,18.1290101824484,19.8231183329658,NaN,1,,,,
256,1,2,083.jpg,19.834882893239,20.3525386388769,20.4466505929827,NaN,1,,,,
257,1,2,004.jpg,20.4584251150359,20.9760757288477,23.2701942637659,NaN,1,,,,
258,1,2,004.jpg,23.2819612390163,23.7996323801322,24.6937323197271,1.03543465510029,1,,,,
259,1,2,003.jpg,24.7054977856174,25.2231550406154,26.5172741792776,NaN,1,,,,
260,1,2,085.jpg,26.5290423620168,27.0467128993882,27.5408102428833,NaN,1,,,,
261,1,2,001.jpg,27.5525741994124,28.0702402087022,28.2702211303845,NaN,1,,,,
262,1,2,001.jpg,28.281990520612,28.7996465681217,30.0937651030395,0.623614972977521,1,,,,
263,1,2,006.jpg,30.1055414363259,30.6231998988123,32.3173445758562,NaN,1,,,,
264,1,2,014.jpg,32.3290889106975,30.6231998988123,32.8467189972052,NaN,1,,,,
265,1,2,012.jpg,32.8584905005373,33.3761577173154,35.2702624868648,NaN,1,,,,
266,1,2,007.jpg,35.2820318770923,35.799680075927,38.1996941431676,NaN,1,,,,
267,1,2,005.jpg,38.2232265843081,38.7408747831428,40.9408831751875,NaN,1,,,,
268,1,2,087.jpg,40.9644421810744,41.4820897761651,43.88207878802,NaN,1,,,,
269,1,2,010.jpg,43.8938472726309,44.4115120744323,44.7056121951509,NaN,1,,,,
270,1,2,015.jpg,44.717381585378,45.2350318973176,46.9291919698394,NaN,1,,,,
271,1,2,089.jpg,46.9409344934479,47.4585736361191,49.0585782849498,NaN,1,,,,
272,1,2,076.jpg,49.0703745417959,49.5880091563854,50.8821171257791,NaN,1,,,,
273,1,2,079.jpg,50.8938862141345,51.4115386391786,51.7056523441429,NaN,1,,,,
274,1,2,085.jpg,51.7174153950555,52.2350765743913,53.0350715029399,NaN,1,,,,
275,1,2,082.jpg,53.0468360632135,53.56450871369,55.1644952501933,NaN,1,,,,
276,1,2,006.jpg,55.1762567917453,55.69391495236,56.4939144089903,NaN,1,,,,
277,1,2,005.jpg,56.5056792711357,57.0233338092853,58.2351028372659,NaN,1,57.8116659084644,,,
278,1,2,083.jpg,58.2468640769462,58.7645385386554,59.2586361840226,NaN,1,,,,
279,1,2,090.jpg,-1.14138331691629,-0.623733004976657,1.17627188535153,NaN,1,,,60.4116765947379,
280,1,2,012.jpg,1.18803614375292,1.70571000171776,1.79980505098501,NaN,1,,,,
281,1,2,015.jpg,1.811568705642,2.32922596064009,4.22334944626118,NaN,1,,,,
282,1,2,010.jpg,4.23511249717376,4.75276914842789,5.55276769944157,NaN,1,,,,
283,1,2,003.jpg,5.56453225971518,6.08222362626339,8.17631233621569,NaN,1,,,,
284,1,2,077.jpg,8.18807568900047,8.70576252746696,10.5998564296196,NaN,1,,,,
285,1,2,076.jpg,10.6116188767883,11.1292921310092,13.2233995570332,NaN,1,,,,
286,1,2,014.jpg,13.2351638154341,13.7528177498393,15.6469427448205,NaN,1,,,,
287,1,2,009.jpg,15.6704739784723,16.1881424027392,17.9881309919729,NaN,1,,,,
288,1,2,089.jpg,17.9998955522465,18.5175519016284,21.0116779229752,NaN,1,,,,
289,1,2,089.jpg,21.0234430869928,21.541100643863,23.4352205070186,NaN,0,,,,
290,1,2,007.jpg,23.4469862747806,23.9646559065359,26.2587946668859,NaN,1,,,,
291,1,2,086.jpg,26.2823361641895,26.7999496477305,28.6941247534837,NaN,1,,,,
292,1,2,008.jpg,28.7176565908799,29.235258905152,30.3411426644625,NaN,1,,,,
293,1,2,081.jpg,30.3529259408074,30.8705717246648,32.7646840410175,NaN,1,,,,
294,1,2,011.jpg,32.776456148094,33.2941031394398,34.7882264439377,NaN,1,,,,
295,1,2,004.jpg,34.7999964379092,35.317644938616,35.7176436103787,NaN,1,,,,
296,1,2,004.jpg,35.7294078687801,36.2470753874304,36.5412250151767,0.67067623279263,1,,,,
297,1,2,001.jpg,36.5529675387857,37.0705964178046,39.0706039646075,0.000121050719826599,0,,,,
298,1,2,002.jpg,39.0941324814103,39.6118196217485,41.4117943248648,NaN,1,,,,
299,1,2,079.jpg,41.4235585832662,41.9412128195431,43.6353351580497,NaN,1,,,,
300,1,2,088.jpg,43.6471030389166,44.1647545583446,44.9647594486728,NaN,1,,,,
301,1,2,084.jpg,44.9765215939697,45.4941939425739,45.7882883277221,NaN,1,,,,
302,1,2,080.jpg,45.8118171463971,46.3294885893852,47.9294760315047,NaN,1,,,,
303,1,2,078.jpg,47.9412481385812,48.458894526183,50.3530195211647,NaN,1,,,,
304,1,2,013.jpg,50.376552264177,50.8942040854772,51.7883212317834,NaN,1,,,,
305,1,2,013.jpg,51.8000866976731,52.3177415376945,52.4118546992886,NaN,0,,,,
306,1,2,087.jpg,52.4236231839,52.9412734958391,54.7412808011445,0.34122054746922,0,,,,
307,1,2,001.jpg,54.7530435501853,55.2707032201606,57.0707035824071,NaN,1,,,,
308,1,2,008.jpg,57.0824687464251,57.6001371706916,58.2001243109394,NaN,1,,,,
309,1,2,004.jpg,58.2118876637242,58.7295458243389,59.4236597104264,NaN,1,,,,
310,1,2,011.jpg,59.4354233650834,59.9530812238258,61.0472541560998,NaN,1,,,,
311,1,2,011.jpg,61.0589840010798,61.5766180119249,63.0707382977012,NaN,0,,,,
312,1,2,011.jpg,63.0825031598465,63.6001604148451,65.6943037636511,NaN,0,,,,
313,1,2,014.jpg,65.7060453816434,66.2237255789228,66.4236992556739,NaN,1,,,,
314,1,2,014.jpg,66.4354626084591,66.9531180522245,68.6472412963476,NaN,0,68.5179123369403,,,
315,1,2,012.jpg,-0.164892513903396,0.352763533606776,0.846879895045277,NaN,1,,,68.8237685655131,
316,1,2,078.jpg,0.858642342213898,1.37629748410745,3.07047868767768,NaN,1,,,,
317,1,2,087.jpg,3.08222845621731,3.59986699514411,5.39984501885374,NaN,1,,,,
318,1,2,087.jpg,5.41160988099909,5.92929038015063,8.02338784439462,NaN,0,,,,
319,1,2,007.jpg,8.03514998969149,8.55281026341072,9.24692505511439,NaN,1,,,,
320,1,2,005.jpg,9.2586965584469,9.77634505915375,11.9763525455824,NaN,1,,,,
321,1,2,005.jpg,11.9881155964949,12.5057722477491,14.7057791304333,1.16480557473278,1,,,,
322,1,2,003.jpg,14.7175461056841,15.235235660999,16.7293236464584,NaN,1,,,,
323,1,2,003.jpg,16.741083980522,17.2587409336484,19.2587451598579,NaN,0,,,,
324,1,2,013.jpg,19.2705106257481,19.7881678807462,22.282291788988,NaN,1,,,,
325,1,2,082.jpg,22.2940672166578,22.8117262828887,24.2117149928713,NaN,1,,,,
326,1,2,010.jpg,24.2234852887154,24.7411313744451,26.6352575769151,NaN,1,,,,
327,1,2,009.jpg,26.6470299858634,27.1647122962477,29.1647083719104,NaN,1,,,,
328,1,2,088.jpg,29.1764566310894,29.694118112297,30.4941033809378,NaN,1,,,,
329,1,2,006.jpg,30.5058854497943,31.0235366673501,32.3176884082013,NaN,1,,,,
330,1,2,084.jpg,32.3294173475647,32.8470915074017,32.9411741799117,NaN,1,,,,
331,1,2,086.jpg,32.9529465888604,33.4705962970556,33.8705931575855,NaN,1,,,,
332,1,2,076.jpg,33.8823580197313,34.4000095391593,35.4941308513007,NaN,1,,,,
333,1,2,076.jpg,35.5058960153183,36.023553572189,36.917668303518,0.741286536715052,1,,,,
334,1,2,080.jpg,36.9411989334258,37.4588872812524,39.5529787080541,NaN,1,,,,
335,1,2,085.jpg,39.5765069229847,40.0941629704944,40.5882805394217,NaN,1,,,,
336,1,2,002.jpg,40.6000463071837,41.1177132220896,42.91771841429,NaN,1,,,,
337,1,2,015.jpg,42.9412327431032,43.458886073764,45.0589040049676,NaN,1,,,,
338,1,2,015.jpg,45.0706661502645,45.588324612751,46.5883152547153,0.81185246543464,1,,,,
339,1,2,083.jpg,46.6000810224773,47.1177409943248,48.9177404509551,NaN,1,,,,
340,1,2,081.jpg,48.92951950109,49.4471740392391,51.2471608172405,NaN,1,,,,
341,1,2,077.jpg,51.2589422823526,51.7765956130133,52.7765811231516,NaN,1,,,,
342,1,2,079.jpg,52.8001117530594,51.7765956130133,53.3177650837201,NaN,1,,,,
343,1,2,079.jpg,53.3295248140394,53.847197766388,54.1413036226768,NaN,0,,,,
344,1,2,089.jpg,54.1648279132701,54.6824794326981,55.1766142083361,0.811988911633307,0,,,,
345,1,2,090.jpg,55.1883630712591,55.7060330048866,57.1060189980203,NaN,1,,,,
346,1,2,006.jpg,57.1177820489329,57.6354320590003,59.7295612198172,NaN,1,,,,
347,1,2,012.jpg,59.7413306100443,60.2589824313445,62.5531067018328,NaN,1,,,,
348,1,2,080.jpg,62.5648718658508,63.08253636578,64.4825280944838,NaN,1,,,,
349,1,2,090.jpg,-1.88261823349876,-1.36496007288406,0.0350488625308572,NaN,1,,,66.3767596503235,
350,1,2,013.jpg,0.0468058760011445,0.56445769730135,2.16446476110923,NaN,1,,,,
351,1,2,078.jpg,2.17623294384794,2.69388325578757,4.38800619803851,NaN,1,,,,
352,1,2,011.jpg,4.41153380922469,4.92919076235103,5.42330621817337,NaN,1,,,,
353,1,2,015.jpg,5.43507017470256,5.95273829709731,8.15273250115251,NaN,1,,,,
354,1,2,004.jpg,8.16450068389122,8.68216125948311,11.1762785265382,NaN,1,,,,
355,1,2,082.jpg,11.188056671057,11.7057033605311,13.1057011266776,NaN,1,,,,
356,1,2,085.jpg,13.1174647813345,13.6351229419492,15.1292420202371,NaN,1,,,,
357,1,2,087.jpg,15.1410105048481,15.6586605149155,17.9527884078693,NaN,1,,,,
358,1,2,009.jpg,17.9645568924802,18.4822235055144,20.176328335438,NaN,1,,,,
359,1,2,089.jpg,20.1880941032,20.7057507544541,21.9998689874997,NaN,1,,,,
360,1,2,081.jpg,22.0116332459011,22.5292920102602,22.6234024550054,NaN,1,,,,
361,1,2,005.jpg,22.6351688265113,23.1528224590443,24.8469444956791,NaN,1,,,,
362,1,2,005.jpg,24.8587259607912,25.376362386613,27.3763729521374,0.529496981429475,1,,,,
363,1,2,010.jpg,27.3999026764286,27.9175855905569,29.9175611389151,NaN,1,,,,
364,1,2,007.jpg,29.941092070695,30.458743590123,32.1528677398624,NaN,1,,,,
365,1,2,001.jpg,32.1646344132405,32.6822847251801,34.8822955322021,NaN,1,,,,
366,1,2,084.jpg,34.9058243508771,35.4234915676552,37.823495371244,NaN,1,,,,
367,1,2,084.jpg,37.8352810625656,38.3529078284801,40.8470335479542,NaN,0,,,,
368,1,2,002.jpg,40.8588008250767,41.3764526463769,42.6705711812951,NaN,1,,,,
369,1,2,008.jpg,42.6823411752666,43.2000017508585,44.4000044073332,NaN,1,,,,
370,1,2,003.jpg,44.4235803180586,43.2000017508585,44.9411711611906,NaN,1,,,,
371,1,2,086.jpg,-0.164873194088159,0.352781947805397,0.846898912988308,NaN,1,,,45.1176942041461,
372,1,2,014.jpg,0.858661963901341,1.37631650205049,3.37632133200441,NaN,1,,,,
373,1,2,083.jpg,3.38808740163859,3.90576005211506,5.50574628674622,NaN,1,,,,
374,1,2,077.jpg,5.51753258181225,6.03518410124025,6.23516260794531,NaN,1,,,,
375,1,2,088.jpg,6.24693139442843,6.76459951682318,9.25870742584266,NaN,1,,,,
376,1,2,079.jpg,9.27047741981414,9.7881392028944,10.8822581000591,NaN,1,,,,
377,1,2,076.jpg,10.8940247734372,11.4116832359241,13.2116709195416,NaN,1,,,,
378,1,2,079.jpg,13.2234369891758,13.7411205070484,14.1411028777165,NaN,1,,,,
379,1,2,079.jpg,14.1528511368956,14.6705071844053,15.8705113502406,0.694232823702805,1,,,,
380,1,2,085.jpg,15.8822747030254,16.3999422216762,16.5999267658235,NaN,1,,,,
381,1,2,080.jpg,16.6116964579228,17.1293440530135,17.729343570018,NaN,1,,,,
382,1,2,003.jpg,17.741107224675,18.2587659890341,19.8587667135271,NaN,1,,,,
383,1,2,011.jpg,19.870535198138,20.3881824913565,22.6823137049037,NaN,1,,,,
384,1,2,086.jpg,22.6940770576884,23.211732803326,24.9058545380885,NaN,1,,,,
385,1,2,007.jpg,24.9176184946177,25.4352866170125,26.9293933185436,NaN,1,,,,
386,1,2,005.jpg,26.9411578788167,27.4588392835849,29.2588194203995,NaN,1,,,,
387,1,2,013.jpg,29.2705876031382,29.78823821695,31.0823588649728,NaN,1,,,,
388,1,2,010.jpg,31.094122821502,31.6117806802445,33.1058997585324,NaN,1,,,,
389,1,2,014.jpg,33.1176911854245,31.6117806802445,33.6353134232568,NaN,1,,,,
390,1,2,014.jpg,33.6471018314278,34.1647349366563,35.2588526263326,NaN,0,,,,
391,1,2,087.jpg,35.2706220165601,35.7882717247553,36.5882699738968,NaN,1,,,,
392,1,2,009.jpg,36.6000547596022,37.1177083921352,38.4118109278311,NaN,1,,,,
393,1,2,012.jpg,38.4236310325746,38.9412339505911,39.635346931062,NaN,1,,,,
394,1,2,081.jpg,39.6471229624763,40.1647856511727,42.0588901188498,NaN,1,,,,
395,1,2,077.jpg,42.0706534716346,42.5883303483211,45.0824856512631,NaN,1,,,,
396,1,2,084.jpg,45.0942601733168,45.6118546389139,48.0118635743288,NaN,1,,,,
397,1,2,084.jpg,48.023628134602,48.5412847858561,50.2354071243631,1.23540440751412,1,,,,
398,1,2,088.jpg,50.2471701752756,50.7648325621003,52.3648290603837,NaN,1,,,,
399,1,2,001.jpg,52.3765978468668,52.8942487625504,53.9883691690757,NaN,1,,,,
400,1,2,004.jpg,54.0001355405816,54.5178420007355,56.5177930974523,NaN,1,,,,
401,1,2,078.jpg,56.5295600727027,57.0472131014913,59.1413567521699,NaN,1,,,,
402,1,2,008.jpg,59.1531080300697,59.670755021416,59.9648702357408,NaN,1,,,,
403,1,2,076.jpg,59.976636305375,60.4943080502348,60.9884075068348,NaN,1,,,,
404,1,2,082.jpg,61.0001744820852,61.5178284164904,63.7178340916862,NaN,1,,,,
405,1,2,082.jpg,63.7295965388548,64.2472540957251,65.7413737777574,0.823658382189024,1,,,,
406,1,2,090.jpg,65.7531422623683,66.2707931780519,68.4707997588644,NaN,1,,,,
407,1,2,089.jpg,68.4825697528358,69.0002378752306,71.2943452408804,NaN,1,,,,
408,1,2,002.jpg,71.3061176498286,71.8237655467915,73.6237704371197,NaN,1,,,,
409,1,2,015.jpg,-0.694341799538051,-0.176696317552342,1.82330821052938,NaN,1,,,74.1885607974978,0.15287136232746
410,1,2,083.jpg,1.8468385385645,2.36449156735353,2.85860581568704,NaN,1,,,,
411,1,2,006.jpg,2.88217236837681,3.39979007812781,5.19979466658378,NaN,1,,,,
412,1,2,077.jpg,5.21155832124077,5.72922704737994,6.52921624035798,NaN,1,,,,
413,1,2,078.jpg,6.54097989501497,7.05865224361924,8.65864179884375,NaN,1,,,,
414,1,2,078.jpg,8.67040364226841,9.18805425607979,9.88217599084237,NaN,0,,,,
415,1,2,006.jpg,9.89393994737156,10.4115953911373,10.70571030359,0.0588943450597981,0,,,,
416,1,2,088.jpg,10.7174730526303,11.2351287982683,13.3292567515964,NaN,1,,,,
417,1,2,002.jpg,13.3410179912767,13.8586743406586,15.1527928755763,NaN,1,,,,
418,1,2,001.jpg,15.1645562283616,15.6822128796157,17.1763343728803,NaN,1,,,,
419,1,2,011.jpg,17.1881028574912,17.7057679611648,20.1998794926494,NaN,1,,,,
420,1,2,015.jpg,20.2116422416902,20.7292985910722,21.5292989533191,NaN,1,,,,
421,1,2,004.jpg,21.54106321172,22.0587186554858,22.6587329642243,NaN,1,,,,
422,1,2,014.jpg,22.6704872608457,23.1881381765293,23.5881329239546,NaN,1,,,,
423,1,2,087.jpg,23.5999059366472,24.1175538336101,25.4116723685279,NaN,1,,,,
424,1,2,010.jpg,25.4234508149189,25.9411059568124,27.3410952705394,NaN,1,,,,
425,1,2,009.jpg,27.3528743206748,27.8705155764505,29.0705170254369,NaN,1,,,,
426,1,2,086.jpg,29.0822864156639,29.5999376332202,30.694055322896,NaN,1,29.5293925336759,,,
427,1,2,083.jpg,30.7058195812974,31.2234756288071,32.317592714739,NaN,1,,,,
428,1,2,083.jpg,32.329358482501,32.8470139262668,33.9411319178148,0.729496921055215,1,,,,
429,1,2,012.jpg,33.9646664720599,34.4823330850941,36.482323123314,NaN,1,,,,
430,1,2,084.jpg,36.505850432628,37.0235064801377,39.4235347353683,NaN,1,,,,
431,1,2,084.jpg,39.4353288791094,39.9529357214637,41.9529402495455,1.11769178916893,1,,,,
432,1,2,081.jpg,41.9647102435174,42.4823774602955,43.0823588649728,NaN,1,,,,
433,1,2,007.jpg,43.0941297645609,43.6117915476411,46.0117847857055,NaN,1,,,,
434,1,2,090.jpg,46.0235556852936,46.5412059972332,47.9412107064381,NaN,1,,,,
435,1,2,090.jpg,47.9529743610951,48.4706304086053,49.870634815938,1.623639726492,1,,,,
436,1,2,089.jpg,49.8824020930606,50.4000629705242,51.8000553029724,NaN,1,,,,
437,1,2,082.jpg,51.8235832160308,52.3412534515305,54.5412458443529,NaN,1,,,,
438,1,2,076.jpg,54.5530155364527,55.0706658483919,55.8706656068944,NaN,1,,,,
439,1,2,079.jpg,55.8824334877613,55.0706658483919,56.4000874221661,NaN,1,,,,
440,1,2,005.jpg,56.4118507749513,56.9295010868905,58.7295056753469,NaN,1,,,,
441,1,2,005.jpg,58.7412687262599,56.9295010868905,59.2589187363274,NaN,0,,,,
442,1,2,003.jpg,59.2706875228105,59.7883387403663,61.6824749046159,0.0941841015423961,0,,,,
443,1,2,003.jpg,61.6942264843883,62.2118822300258,62.5059950293739,NaN,0,,,,
444,1,2,013.jpg,62.5177635139848,63.0354141277962,64.1295354399381,0.211822761218173,0,,,,
445,1,2,085.jpg,64.1413033208046,64.6589524252558,66.9530788088491,NaN,1,,,,
446,1,2,080.jpg,66.9648494065646,67.482499416632,69.976625739851,NaN,1,,,,
447,1,2,008.jpg,69.9883936207175,70.5060442345293,72.7060523247023,NaN,1,,,,
448,1,2,008.jpg,72.7178165831033,70.5060442345293,73.235466291299,NaN,0,,,,
449,1,2,086.jpg,73.2472402096082,73.764887200954,74.3648864160868,NaN,1,,,,
450,1,2,086.jpg,74.3766512782322,74.8943320792559,75.6943034617789,NaN,0,,,,
451,1,2,089.jpg,75.7060692295408,76.2237234658182,76.4237194811062,NaN,1,,,,
452,1,2,082.jpg,76.4354831357632,76.9531394851451,78.7531540353812,NaN,1,,,,
453,1,2,087.jpg,78.7649086338747,79.2825646813844,80.1766827333072,NaN,1,,,,
454,1,2,013.jpg,80.1884469917086,80.706099718625,81.2002172875523,NaN,1,,,,
455,1,2,085.jpg,81.2119782253603,81.7296375934634,81.9296320993908,NaN,1,,,,
456,1,2,077.jpg,81.9414014896183,82.4590521034297,84.9531796341371,NaN,1,84.753266029938,,,
457,1,2,015.jpg,-0.858997041955263,-0.341367559191895,0.952752485086876,0.553001348463113,0,,,85.8238663720799,
458,1,2,010.jpg,0.964518252848848,1.48223376916621,3.88217931143572,NaN,1,,,,
459,1,2,010.jpg,3.89394417358108,4.4116008248352,6.01160336056137,NaN,0,,,,
460,1,2,081.jpg,6.02336912832288,6.54102366647248,9.03514848033046,NaN,1,,,,
461,1,2,078.jpg,9.04691666306917,9.56456727688101,11.9645771179121,NaN,1,,,,
462,1,2,078.jpg,11.9763407725691,12.4940107061966,12.8939942843531,0.870681606116705,1,,,,
463,1,2,083.jpg,12.9057633727084,13.4234142883925,14.3175323403148,0.0941889314967739,0,,,,
464,1,2,090.jpg,14.3292950893556,14.8469520424819,16.2469543367101,NaN,1,,,,
465,1,2,080.jpg,16.2587182932393,16.7763755482374,19.2705000602236,NaN,1,,,,
466,1,2,001.jpg,19.2940300863866,19.811694888188,21.1058031594539,NaN,1,,,,
467,1,2,011.jpg,21.1175731534254,21.6352231634928,23.8352306499214,NaN,1,,,,
468,1,2,079.jpg,23.8469955120672,24.3646524651936,25.5646518010749,NaN,1,,,,
469,1,2,079.jpg,25.576416361348,26.0940712013694,28.1881934191274,0.882444657029737,1,,,,
470,1,2,004.jpg,28.2117270677559,28.7293973032556,29.7293813040333,NaN,1,,,,
471,1,2,002.jpg,29.7529116320684,30.2705649627292,31.1646830146519,NaN,1,,,,
472,1,2,008.jpg,31.1764469711811,31.6941063392842,33.9882254779463,NaN,1,,,,
473,1,2,008.jpg,33.9999915475805,34.5176497081952,36.8117727711951,1.02361938031117,1,,,,
474,1,2,084.jpg,36.823541255806,37.3411909640013,37.5411896961386,NaN,1,,,,
475,1,2,009.jpg,37.5529572751334,38.070608190817,39.6706146508805,NaN,1,,,,
476,1,2,012.jpg,39.682379814898,40.200031334326,40.4000376132663,NaN,1,,,,
477,1,2,012.jpg,40.4117922117598,40.9294476555251,43.2235695110367,0.729496317310804,1,,,,
478,1,2,006.jpg,43.2353422218571,43.7529925337967,44.8471111290892,NaN,1,,,,
479,1,2,007.jpg,44.8588817268051,45.3765416986525,47.2706534112608,NaN,1,,,,
480,1,2,088.jpg,47.2824221977439,47.8000876032893,47.8941886899988,NaN,1,,,,
481,1,2,003.jpg,47.9177156974406,47.8000876032893,48.4353648018919,NaN,1,,,,
482,1,2,014.jpg,48.4471372108405,48.9648023145137,49.0588973637809,NaN,1,,,,
483,1,2,005.jpg,49.0706661502641,49.5885697329127,50.2824327632679,NaN,1,,,,
484,1,2,076.jpg,50.2942039647282,50.8118545785396,51.7059723285902,NaN,1,,,,
485,1,2,013.jpg,51.7177405113289,52.2353932382457,52.4353868385565,NaN,1,,,,
486,1,2,013.jpg,52.4471507950857,52.964807748212,55.4589343733028,0.776560293975308,1,,,,
487,1,2,084.jpg,55.4706992354486,52.964807748212,55.988372489669,NaN,1,,,,
488,1,2,084.jpg,56.0001325218609,56.5177698532993,57.0118850072495,NaN,0,,,,
489,1,2,086.jpg,57.0236528881164,57.5413028981839,59.2354798755441,NaN,1,,,,
490,1,2,006.jpg,59.247189796964,59.7648530894044,60.6589617832915,NaN,1,,,,
491,1,2,002.jpg,60.6707263435646,61.1883839004354,61.6824981487694,NaN,1,,,,
492,1,2,014.jpg,61.6942633127869,62.2119196621688,63.8119215941506,NaN,1,,,,
493,1,2,015.jpg,63.8236912862499,64.3413597105168,65.7413432886733,NaN,1,,,,
494,1,2,005.jpg,65.7531078489469,66.2707626889683,67.1648816465072,NaN,1,,,,
495,1,2,005.jpg,67.1766468105247,67.6942998393133,68.3884185553547,0.576571825490191,1,,,,
496,1,2,010.jpg,68.4001846249889,68.9178482193015,70.7178413366173,NaN,1,,,,
497,1,2,010.jpg,70.7296058968909,71.2472604350401,73.2472706986919,0.694199919641505,1,,,,
498,1,2,012.jpg,73.2590316364999,73.7767100225469,75.1767355609281,NaN,1,,,,
499,1,2,012.jpg,75.188453934767,73.7767100225469,75.7061033410905,NaN,0,,,,
500,1,2,082.jpg,-2.89434294665261,-2.37668689914244,0.117431877273248,0.14124204076461,0,,,78.6120946272499,
501,1,2,082.jpg,0.129195531930236,0.646850371951587,0.846847896600138,NaN,0,,,,
502,1,2,004.jpg,0.858611249384921,1.37626669315068,1.87038607331078,NaN,1,,,,
503,1,2,085.jpg,1.88214972796777,2.39980064365136,4.09392418964671,NaN,1,,,,
504,1,2,080.jpg,4.10569207051367,2.39980064365136,4.62333664688276,NaN,1,,,,
505,1,2,079.jpg,4.63510271651694,5.15275725466608,7.15276510334115,NaN,1,,,,
506,1,2,076.jpg,7.16452815425419,7.68218933359003,8.2821828131523,NaN,1,,,,
507,1,2,089.jpg,8.2939503921466,8.81159889285345,10.4116071641497,NaN,1,,,,
508,1,2,081.jpg,10.4351308509986,10.9527881059967,12.5527951698045,NaN,1,,,,
509,1,2,011.jpg,12.5645621450549,13.0822245318791,15.2822208490393,NaN,1,,,,
510,1,2,088.jpg,15.293986314929,15.811652626091,16.2116386192247,NaN,1,15.9058346145289,,,
511,1,2,003.jpg,16.2234028776261,16.7410595288802,17.0351705169951,NaN,1,,,,
512,1,2,001.jpg,17.046936888501,17.5645923322668,19.6587166631293,NaN,1,,,,
513,1,2,087.jpg,19.6704830346357,20.1881357615521,20.3881293618633,NaN,1,,,,
514,1,2,007.jpg,20.3998951296253,20.9175520827516,22.0116697724275,NaN,1,,,,
515,1,2,083.jpg,22.0234467094579,22.541105473817,24.9410965987763,NaN,1,,,,
516,1,2,008.jpg,24.9528653852594,25.4705172065596,27.9646429260342,NaN,1,,,,
517,1,2,077.jpg,27.9764114106451,28.4940629300731,29.7881884080502,NaN,1,,,,
518,1,2,078.jpg,29.7999514589628,30.317601167158,30.4117200643227,NaN,1,,,,
519,1,2,090.jpg,30.4352425436828,30.9529001005535,32.7529055946261,NaN,1,,,,
520,1,2,009.jpg,32.7764316964517,33.2940937814042,34.6940936606552,NaN,1,,,,
521,1,2,090.jpg,34.7058561078238,35.2235296639165,35.4235078687493,NaN,1,,,,
522,1,2,014.jpg,35.4352706177901,35.9647023948419,38.1529338498563,NaN,1,,,,
523,1,2,014.jpg,38.1646981082577,38.682355061384,40.8824087342468,1.35303582225924,1,,,,
524,1,2,010.jpg,40.8941337492729,41.4117807406187,41.9294280338372,NaN,1,,,,
525,1,2,006.jpg,41.9412152345199,42.458844415411,44.4588519622139,NaN,1,,,,
526,1,2,085.jpg,44.4706162206153,44.9882698531483,47.4941616422566,NaN,1,,,,
527,1,2,081.jpg,47.5059289193791,48.0235816462955,50.1177065809025,NaN,1,,,,
528,1,2,088.jpg,50.1294856310378,50.6471431879081,51.8471473537434,NaN,1,,,,
529,1,2,001.jpg,51.8588934998174,52.3883129001124,54.0706682633686,NaN,1,,,,
530,1,2,004.jpg,54.0824337292584,54.6000918898731,56.0942091569282,NaN,1,,,,
531,1,2,003.jpg,56.1059731134574,56.623635500282,57.8236309118256,NaN,1,,,,
532,1,2,080.jpg,57.8353948683548,58.3530651038545,59.9530537534629,NaN,1,,,,
533,1,2,080.jpg,59.964818313736,60.4825042465859,61.9060060778929,1.08246089774957,1,,,,
534,1,2,078.jpg,61.9177694306782,62.4354396661774,64.8589632322773,NaN,1,,,,
535,1,2,084.jpg,64.894262346796,65.411929261702,67.9178135040074,NaN,1,,,,
536,1,2,089.jpg,67.9766625682491,68.4943183138871,69.294540854014,NaN,1,,,,
537,1,2,005.jpg,69.3533545992177,69.9060546793044,70.176640169338,NaN,1,,,,
538,1,2,082.jpg,70.2237038441299,69.9060546793044,70.7415835788811,NaN,1,,,,
539,1,2,082.jpg,-1.07056864556944,-0.55293071038659,1.1529764138254,NaN,0,,,71.8238002620851,
540,1,2,086.jpg,1.1764982894415,1.69393759276909,3.89393028746372,NaN,1,,,,
541,1,2,007.jpg,3.90567341481665,4.42333670725748,5.10601175308921,NaN,1,,,,
542,1,2,087.jpg,5.1177062790307,5.63535206288816,6.78831670370118,NaN,1,,,,
543,1,2,015.jpg,6.80007492466029,7.31771195422652,8.17653028788618,NaN,1,,,,
544,1,2,076.jpg,8.19985413539143,8.71771002224477,9.89423095209531,NaN,1,,,,
545,1,2,083.jpg,9.90597166447151,10.4236228820273,12.9177319985351,NaN,1,11.670791849815,,,
546,1,2,083.jpg,12.9295170861128,13.4471501913417,14.0471853292565,0.717794848310859,1,,,,
547,1,2,011.jpg,14.1998677196366,13.4471501913417,14.7177387000961,NaN,1,,,,
548,1,2,012.jpg,14.7292536121263,15.2471731939972,17.5412875027055,NaN,1,,,,
549,1,2,013.jpg,17.5530771183649,18.1766084727656,19.0824714632736,NaN,1,,,,
550,1,2,002.jpg,19.1060045081581,19.6236747436578,19.7177749247508,NaN,1,,,,
551,1,2,079.jpg,19.8469710604254,20.3648619644446,21.6589814049789,NaN,1,,,,
552,1,2,077.jpg,21.670719098634,22.2001484607085,22.447242262338,NaN,1,,,,
553,1,2,008.jpg,22.4707454218828,22.9883839608096,25.3883862550379,NaN,1,,,,
554,1,2,009.jpg,25.4001665126616,25.9178225601713,27.8119520832347,NaN,1,,,,
555,1,2,008.jpg,27.8237145304029,28.3413524655857,29.2001988733527,NaN,1,,,,
556,1,2,080.jpg,29.2119552830791,29.7293541355421,31.2237379556796,NaN,1,,,,
557,1,2,006.jpg,31.2354738381018,29.7293541355421,31.7531486016828,NaN,1,,,,
558,1,2,076.jpg,31.7649240293526,32.2823274098978,34.682317629241,NaN,1,,,,
559,1,2,085.jpg,34.694082793259,35.2119990545366,37.7296529889413,NaN,1,,,,
560,1,2,007.jpg,37.7413961162943,38.2590720873641,38.7884637154239,NaN,1,,,,
561,1,2,081.jpg,38.8002545385716,39.3178976055806,41.2120244117946,NaN,1,,,,
562,1,2,090.jpg,41.2237714634848,41.7414329446929,44.0355457440405,NaN,1,,,,
563,1,2,002.jpg,44.0473724899707,44.5649817473022,45.4708694913243,NaN,1,,,,
564,1,2,084.jpg,45.48261442991,46.0002677605708,46.2002948686868,NaN,1,,,,
565,1,2,009.jpg,46.2120292417485,46.7297151745984,47.9532357823514,NaN,1,,,,
566,1,2,015.jpg,47.9649973239034,48.482650352692,49.6826391230493,NaN,1,,,,
567,1,2,089.jpg,49.6944187769286,50.2121092378602,52.706207788844,NaN,1,50.2827512383546,,,
568,1,2,082.jpg,52.717971443501,53.2356326228369,55.4356099220536,NaN,1,,,,
569,1,2,013.jpg,55.4473892740607,55.9650287186041,58.2003504131571,NaN,1,,,,
570,1,2,010.jpg,58.2121022948018,58.729747776787,59.7298461870982,NaN,1,,,,
571,1,2,088.jpg,59.7415352793419,60.2591834781765,60.3532978472595,NaN,1,,,,
572,1,2,011.jpg,60.3650461064381,60.8824839004051,60.9768183342635,NaN,1,,,,
573,1,2,005.jpg,60.988598290015,61.506241960768,63.2119063797954,NaN,1,,,,
574,1,2,003.jpg,63.223663091394,63.7413291006837,64.1413027170602,NaN,1,,,,
575,1,2,014.jpg,-1.8590725099848,-1.341347937504,0.858593438930257,NaN,1,,,65.8591214132684,0.152644052621326
576,1,2,083.jpg,0.870357093587245,1.38800740552688,2.28212666493801,NaN,1,,,,
577,1,2,083.jpg,2.29388881023442,2.81156236632751,5.01155928723165,NaN,0,,,,
578,1,2,012.jpg,5.02331690444635,5.54099015866723,6.74097440094238,NaN,1,,,,
579,1,2,012.jpg,6.75273654623879,7.27039349936513,8.07039265412322,NaN,0,,,,
580,1,2,078.jpg,8.08215721439683,8.59981054505761,9.89393058933592,NaN,1,,,,
581,1,2,004.jpg,9.91746484170881,10.4351697925022,11.8351262021683,NaN,1,,,,
582,1,2,079.jpg,11.8468901586975,12.3645371500434,13.5645606356948,NaN,1,,,,
583,1,2,087.jpg,13.5763046686639,14.0939616217902,15.0939573955802,NaN,1,,,,
584,1,2,086.jpg,15.1057322195061,15.6233773996196,18.1175043265821,NaN,1,,,,
585,1,2,001.jpg,18.1410316358965,18.6704534511682,21.1528127991364,NaN,1,,,,
586,1,2,077.jpg,21.1645782650262,21.6822343125364,21.7763894343552,NaN,1,,,,
587,1,2,080.jpg,21.7881150531252,22.3060210507506,22.7060034214187,NaN,1,,,,
588,1,2,083.jpg,22.7177649629712,23.2351846446109,24.7645967999747,NaN,1,,,,
589,1,2,009.jpg,24.776364378969,25.2940198227348,26.5883804590935,NaN,1,,,,
590,1,2,014.jpg,26.6001564905073,27.129341939909,28.541368706306,NaN,1,,,,
591,1,2,011.jpg,28.5530885895055,29.141354035321,29.1648623266915,NaN,1,,,,
592,1,2,010.jpg,29.1766226607556,29.6942850475798,31.6237236469415,NaN,1,,,,
593,1,2,086.jpg,31.6354589256193,32.1766616022587,33.3531221576854,NaN,1,,,,
594,1,2,002.jpg,33.3649030190536,33.8825500103994,34.1766724696554,NaN,1,,,,
595,1,2,012.jpg,34.1884174082406,34.7061018317299,35.8001926547872,NaN,1,,,,
596,1,2,003.jpg,35.8119768367487,36.4472878450288,36.9413909240943,NaN,1,,,,
597,1,2,006.jpg,36.9531355608078,37.4705561480637,38.776680439079,NaN,1,,,,
598,1,2,006.jpg,38.7884507349231,39.3060947075478,39.8002180120457,0.588314047226504,1,,,,
599,1,2,087.jpg,39.8119789498533,40.3296313748979,40.8355572755559,NaN,1,,,,
600,1,2,087.jpg,40.8470407928853,41.3646941235461,42.9649577786558,0.47066814262007,1,,,,
601,1,2,005.jpg,42.9766996985204,43.4943678209152,44.6943644399475,NaN,1,,,,
602,1,2,081.jpg,44.706122359034,45.3296956736594,47.7294456027948,NaN,1,,,,
603,1,2,084.jpg,47.7411992956722,48.2588707386599,50.7059379151688,NaN,1,,,,
604,1,2,085.jpg,50.7177290401887,51.2356060580905,52.6355995980271,NaN,1,,,,
605,1,2,013.jpg,52.6473415178916,53.1768080102374,53.365040370868,NaN,1,,,,
606,1,2,078.jpg,53.3767976862109,53.8944135847287,55.8473819083815,NaN,1,,,,
607,1,2,008.jpg,55.8591491855041,56.3768004030599,58.1885614012422,NaN,1,,,,
608,1,2,090.jpg,58.3532510570808,58.8709360843141,59.6709307109904,NaN,1,,,,
609,1,2,089.jpg,59.682672630855,60.2001022742747,61.0003284368672,NaN,1,,,,
610,1,2,089.jpg,61.0121077888743,61.5295090563145,61.9885723290131,NaN,0,,,,
611,1,2,001.jpg,62.0003574165908,62.5180201052872,64.3180174488125,0.129605776141943,0,,,,
612,1,2,079.jpg,64.3297536331065,64.9886266659946,66.1886163419681,NaN,1,,,,
613,1,2,007.jpg,-0.282543248463753,0.235093781102478,2.45861046451773,NaN,1,,,66.4827750258783,
614,1,2,077.jpg,2.47039343899041,2.98803710974335,4.98806397636235,NaN,1,,,,
615,1,2,088.jpg,4.99980167001695,5.51747190551669,6.71748029756145,NaN,1,,,,
616,1,2,015.jpg,6.72922916048447,7.24688883045974,9.36432583955911,NaN,1,,,,
617,1,2,076.jpg,9.51723916211176,10.0349106050999,12.5408331851645,NaN,1,,,,
618,1,2,004.jpg,12.5525802368547,13.0702196813982,15.4702135232069,NaN,1,,,,
619,1,2,082.jpg,15.4937450587308,16.0114131811256,18.4114326820645,NaN,1,,,,
620,1,2,090.jpg,18.4231661495096,18.9408237063799,20.5408304683156,NaN,1,,,,
621,1,2,090.jpg,20.5526194802305,21.070246246145,21.2702492044914,NaN,0,,,,
622,1,2,003.jpg,21.2820213115679,21.799677962822,23.6938162401766,0.435358462577369,0,,,,
623,1,2,005.jpg,23.7055524244711,24.223204547643,24.7173571337362,NaN,1,,,,
624,1,2,082.jpg,24.7290854693551,25.2467406112487,26.6467456223259,NaN,1,,,,
625,1,2,006.jpg,26.6585186350189,27.1761755881453,27.2702772785988,NaN,1,,,,
626,1,2,006.jpg,27.2820379145346,27.7997087537783,29.6938174476654,NaN,0,,,,
627,1,2,079.jpg,29.7055817060664,30.2232380554487,30.3173672162652,NaN,1,29.976219419977,,,
628,1,2,088.jpg,30.329117286677,30.8467851071991,31.7408886692601,NaN,1,,,,
629,1,2,001.jpg,31.752651418301,32.2703092770435,33.0703063186966,NaN,1,,,,
630,1,2,014.jpg,33.0820681621212,33.6114896755207,34.0938426841744,NaN,1,,,,
631,1,2,078.jpg,34.1056166024837,34.623260876981,34.9173757894332,NaN,1,,,,
632,1,2,083.jpg,34.9291388403462,35.446794887856,36.246796155719,NaN,1,,,,
633,1,2,083.jpg,36.2585592066316,35.446794887856,36.7762071035945,NaN,0,,,,
634,1,2,084.jpg,36.7879707582515,37.305632843204,38.7056324205828,0.223579170944504,0,,,,
635,1,2,002.jpg,38.7173954714958,39.2350808006013,40.5291703557955,NaN,1,,,,
636,1,2,077.jpg,40.5409343123247,41.058606057185,42.7527099814924,NaN,1,,,,
637,1,2,004.jpg,42.7644757492544,43.2821354192297,44.7762517806682,NaN,1,,,,
638,1,2,008.jpg,44.7880169446858,45.3056723884515,45.9056709998399,NaN,1,,,,
639,1,2,013.jpg,45.9174340507525,46.4350931169838,46.7292038032265,NaN,1,,,,
640,1,2,012.jpg,46.7409695709885,47.2586407121044,47.4588749044951,NaN,1,,,,
641,1,2,012.jpg,47.4706207486975,47.988287059859,49.5880435698068,0.952814368871259,1,,,,
642,1,2,085.jpg,49.5998078282082,50.1174783655797,52.611593821402,NaN,1,,,,
643,1,2,076.jpg,52.6233547592101,53.1410092973597,53.3410053126477,NaN,1,,,,
644,1,2,089.jpg,53.352772287898,53.882187461983,55.3645425837417,NaN,1,,,,
645,1,2,089.jpg,55.3763340106339,55.8939643990134,57.388085892278,0.717741416945501,1,,,,
646,1,2,087.jpg,57.3998552825055,57.9175065000613,59.4116349363849,NaN,1,,,,
647,1,2,009.jpg,59.4233943648323,59.9763380557201,60.0351611589595,NaN,1,,,,
648,1,2,009.jpg,60.0469227005119,60.588359931789,62.2587010865282,NaN,0,,,,
649,1,2,010.jpg,62.3175275103608,62.8351781241727,64.1292987721954,NaN,1,,,,
650,1,2,010.jpg,64.1410630305968,64.6587157575136,65.4587420807625,NaN,0,,,,
651,1,2,011.jpg,65.4704948680233,64.6587157575136,65.9881312938451,NaN,1,,,,
652,1,2,007.jpg,65.9998952503743,66.5178087948029,66.7295527673978,NaN,1,,,,
653,1,2,086.jpg,66.7413315156609,67.2590029586486,68.1531083319423,NaN,1,,,,
654,1,2,080.jpg,68.1649275310697,68.682266310981,70.6822729521673,NaN,1,,,,
655,1,2,081.jpg,70.7058056951801,71.2234692894926,73.0001907831802,NaN,1,,,,
656,1,2,015.jpg,73.0237202055991,73.5413524052115,74.3413630311102,NaN,1,74.0000476957953,,,
657,1,2,077.jpg,-0.470493962406636,0.0468976451256822,1.44714234266667,0.16449796704228,0,,,74.8235264640721,
658,1,2,008.jpg,1.45890056362532,2.08256806235204,4.30597456244368,NaN,1,,,,
659,1,2,002.jpg,4.31774063207786,4.87072869816757,6.55305206297908,NaN,1,,,,
660,1,2,076.jpg,6.56482537754391,7.08246361459851,7.34128726120798,NaN,1,,,,
661,1,2,009.jpg,7.35305151960893,7.87049172855313,10.1648336488402,NaN,1,,,,
662,1,2,089.jpg,10.1766117933589,10.6942557659841,11.6942596903214,NaN,1,,,,
663,1,2,013.jpg,11.7060145906871,12.2236999197926,13.0471968003972,NaN,1,,,,
664,1,2,014.jpg,13.0589776617649,13.5766171063083,15.8825101632797,NaN,1,,,,
665,1,2,085.jpg,15.8942910246474,16.4119537133438,18.2943081106096,NaN,1,,,,
666,1,2,079.jpg,18.3060741802437,18.8707926950569,19.2237156171427,NaN,1,,,,
667,1,2,078.jpg,19.235464178194,19.8707914875686,21.4472479979086,NaN,1,,,,
668,1,2,006.jpg,21.4590050113788,21.9766782655997,23.3414433290941,NaN,1,,,,
669,1,2,087.jpg,23.3531686459919,23.8708246935016,25.8825856313097,NaN,1,,,,
670,1,2,087.jpg,25.8943257399415,26.4120119746631,28.6237749652018,0.976700302264362,1,,,,
671,1,2,082.jpg,28.6355135644726,29.1531711213433,31.1531816868674,NaN,1,,,,
672,1,2,084.jpg,31.1649408134426,31.6825998796739,33.3767228219249,NaN,1,,,,
673,1,2,084.jpg,33.3885076076303,33.9059508352952,35.635579070723,1.20011374541491,1,,,,
674,1,2,011.jpg,35.6473608377073,36.1649764343529,38.2706313745957,NaN,1,,,,
675,1,2,007.jpg,38.2823914067876,38.8000365869011,39.4941688871877,NaN,1,,,,
676,1,2,003.jpg,39.5059325418447,40.0235973436461,40.6235817670445,NaN,1,39.5648274906489,,,
677,1,2,012.jpg,40.6353463273181,41.153019581539,42.6471323205119,NaN,1,,,,
678,1,2,081.jpg,42.6588845040287,43.1765592676097,45.5767894752889,NaN,1,,,,
679,1,2,083.jpg,45.5885473943758,46.1062333272253,47.6473913267914,NaN,1,,,,
680,1,2,083.jpg,47.6591498496223,48.1768061990042,49.8709300468718,0.893976172026214,1,,,,
681,1,2,090.jpg,49.894482411572,50.4121088756137,50.8709846857255,NaN,1,,,,
682,1,2,015.jpg,50.8826994370988,51.4003663520052,52.1062556657621,NaN,1,,,,
683,1,2,010.jpg,52.1180377346186,52.635700423315,53.0474337700116,NaN,1,,,,
684,1,2,010.jpg,53.0591871610163,53.5766119744821,53.8356991554524,NaN,0,,,,
685,1,2,086.jpg,53.8474350378742,54.3648378146754,56.6592186764656,0.129478989851577,0,,,,
686,1,2,088.jpg,56.670970256238,57.188634454295,57.4239262635083,NaN,1,,,,
687,1,2,080.jpg,57.4356721077102,57.9533190990564,60.0474742208758,NaN,1,,,,
688,1,2,005.jpg,60.0709825122462,60.5884142687705,60.9883984506714,NaN,1,,,,
689,1,2,005.jpg,61.00016089784,61.5178353595493,62.4590191993689,1.21189400303865,1,,,,
690,1,2,004.jpg,62.4825374525194,63.0239568733414,64.364885208598,NaN,1,,,,
691,1,2,001.jpg,64.3766545988256,64.894540974763,66.1181147120096,NaN,1,,,,
692,1,2,014.jpg,66.1298430476286,66.6475030194756,67.6472582011861,NaN,1,,,,
693,1,2,086.jpg,67.6590194408664,68.1766763939927,69.5766783863487,NaN,1,,,,
694,1,2,006.jpg,-0.388471081103944,0.129200060011954,2.32919154721822,NaN,1,,,69.8237933190267,0.152837854522204
695,1,2,001.jpg,2.34095671123578,2.85861215500154,3.0586099815223,NaN,1,,,,
696,1,2,008.jpg,3.07037152307475,3.58802757058447,3.78802268025584,NaN,1,,,,
697,1,2,082.jpg,3.79978784427385,3.58802757058447,4.3174357412363,NaN,1,,,,
698,1,2,082.jpg,4.32920332023104,4.84688442312699,6.34097844602866,0.270660656191467,1,,,,
699,1,2,009.jpg,6.35274421379063,6.8703972425792,8.2704013480402,NaN,1,,,,
700,1,2,002.jpg,8.28216138023163,6.8703972425792,8.79981259778742,NaN,1,,,,
701,1,2,087.jpg,8.81157715806103,9.32923954488524,9.5292310320915,NaN,1,,,,
702,1,2,087.jpg,9.54100585601736,9.32923954488524,10.058641979967,NaN,0,,,,
703,1,2,012.jpg,10.0704071439845,10.5880680214486,11.5880837187988,0.188309036149803,0,,,,
704,1,2,010.jpg,11.5998286573845,12.1174850067664,14.5174918290763,NaN,1,,,,
705,1,2,084.jpg,14.5292560874777,15.046913644348,16.7410396053201,NaN,1,,,,
706,1,2,005.jpg,16.752800241256,17.2704559868939,17.7645693296113,NaN,1,,,,
707,1,2,076.jpg,17.7763320786521,18.2940101628269,18.7881099212987,NaN,1,,,,
708,1,2,088.jpg,18.799901650063,19.3175413964786,21.7175313139496,NaN,1,,,,
709,1,2,007.jpg,21.729296176095,22.246949204884,23.6470191184667,NaN,1,,,,
710,1,2,085.jpg,23.6587172668737,24.1763721068951,25.8704962566349,NaN,1,,,,
711,1,2,011.jpg,25.8822556850819,26.39992712807,28.3999198831393,NaN,1,,,,
712,1,2,089.jpg,28.4234502111744,28.9411210504181,29.5411042663286,NaN,1,,,,
713,1,2,080.jpg,29.564630066282,30.0822812838378,30.1764010866186,NaN,1,,,,
714,1,2,090.jpg,30.1881765142884,30.7058334674148,32.3999401085712,NaN,1,,,,
715,1,2,004.jpg,32.411715536241,32.9293788286818,35.1293675990387,NaN,1,33.8118201651178,33.9647558262072,,
716,1,2,015.jpg,35.1411324611845,35.6587879049498,37.9529157979036,NaN,1,,,,
717,1,2,083.jpg,37.9646767357117,38.4823276513957,40.0235810425515,NaN,1,,,,
718,1,2,079.jpg,40.0588249144721,40.5764725095623,41.9764639363943,NaN,1,,,,
719,1,2,077.jpg,42.0000247535136,42.5176545381491,43.2117690279806,NaN,1,,,,
720,1,2,003.jpg,43.2352966391672,43.752947856723,45.5295624876799,NaN,1,,,,
721,1,2,013.jpg,45.5647423627106,46.0826260217991,46.3767508960318,NaN,1,,,,
722,1,2,078.jpg,46.4002803184508,46.9176698128786,48.9176755484486,NaN,1,,,,
723,1,2,081.jpg,48.941207687717,49.4588610183778,51.7530076274029,NaN,1,,,,
724,1,2,012.jpg,51.7647504528836,52.2824206883829,53.4824049306585,NaN,1,,,,
725,1,2,089.jpg,53.4941703965483,54.0118436507687,54.5059409942642,NaN,1,,,,
726,1,2,083.jpg,-1.70604749474796,-1.18839235285441,0.705732340254599,NaN,1,,,56.2236926748615,
727,1,2,082.jpg,0.717495994912042,1.23517890904031,3.72927836564031,NaN,1,,,,
728,1,2,082.jpg,3.74103990719277,4.25871044456426,4.85869305673032,0.85891432899416,1,,,,
729,1,2,077.jpg,4.87045791887567,5.38811849446756,6.48223256167785,NaN,1,,,,
730,1,2,077.jpg,6.49399651820704,5.38811849446756,7.01164652827447,NaN,0,,,,
731,1,2,084.jpg,7.02341199416423,7.54106381546444,8.23518373899424,0.176523646699934,0,,,,
732,1,2,001.jpg,8.25871014269205,8.77638520814571,9.27048285351293,NaN,1,,,,
733,1,2,014.jpg,9.28225194186825,9.79993455412432,9.89401873599536,NaN,1,,,,
734,1,2,014.jpg,9.90578088129178,10.4234384381621,11.5175739382935,NaN,0,,,,
735,1,2,088.jpg,11.5293460453699,10.4234384381621,12.0470096396825,NaN,1,,,,
736,1,2,078.jpg,12.0587735962117,12.5764015696145,14.8705128596016,NaN,1,,,,
737,1,2,015.jpg,14.8822762123864,15.3999322598966,16.3999545984334,NaN,1,,,,
738,1,2,076.jpg,16.4117179512182,16.9293993559863,19.2234789494005,NaN,1,,,,
739,1,2,081.jpg,19.2352410946974,19.7528953309743,21.4470188769697,NaN,1,,,,
740,1,2,080.jpg,21.4587822297544,21.9764382772642,22.0705493257537,NaN,1,,,,
741,1,2,080.jpg,22.0823147916435,22.5999705372815,24.3999769369702,0.870676474290576,1,,,,
742,1,2,011.jpg,24.4117411953716,24.9294105252548,27.2235206077535,NaN,1,,,,
743,1,2,002.jpg,27.2470551619986,27.7647202656717,28.6588328838961,NaN,1,,,,
744,1,2,008.jpg,28.670595632937,29.1882432280277,31.4823671966437,NaN,1,,,,
745,1,2,009.jpg,31.5058936003416,32.0235695714114,34.2235583417682,NaN,1,,,,
746,1,2,006.jpg,34.2470865566988,34.7647564903264,36.564747192665,NaN,1,,,,
747,1,2,086.jpg,36.5765150735319,37.0941982895324,38.988289172964,NaN,1,,,,
748,1,2,005.jpg,39.0118198028717,39.5530496480023,39.7294694506927,NaN,1,,,,
749,1,2,013.jpg,39.7412334072219,40.2588891528594,42.1530132422245,NaN,1,,,,
750,1,2,004.jpg,42.1765414571551,42.6942002215142,43.5883237071348,NaN,1,,,,
751,1,2,004.jpg,43.6000770981395,44.1177488429998,46.0118620649687,NaN,0,45.9178485211742,,,
752,1,2,085.jpg,46.023671302316,46.5412811633914,47.3412754881952,NaN,1,,,,
753,1,2,003.jpg,47.3530427653177,47.8706942847457,48.6706907226549,NaN,1,,,,
754,1,2,087.jpg,48.6824610184985,49.2001125379265,49.8001132624199,NaN,1,,,,
755,1,2,010.jpg,49.8118811432864,50.3295299458655,51.2236492052766,NaN,1,,,,
756,1,2,010.jpg,51.2354530089256,51.7530785673512,53.9530766957441,0.658866995445806,1,,,,
757,1,2,079.jpg,53.9648424635061,54.4824948885507,56.1766175289295,NaN,1,,,,
758,1,2,007.jpg,56.1883839004354,56.7060339105028,58.7060408535617,NaN,1,,,,
759,1,2,090.jpg,58.7178114512776,59.2354765549512,61.2354665931712,NaN,1,,,,
760,1,2,077.jpg,61.2472335684215,61.7648865972101,64.0590265650485,NaN,1,,,,
761,1,2,083.jpg,64.0825451200712,64.6002117331054,66.4002003223391,NaN,1,,,,
762,1,2,078.jpg,66.4119820893234,66.9296206282506,68.4237427252592,NaN,1,,,,
763,1,2,078.jpg,-1.05907335522716,-0.541421232054745,1.95270810988495,1.97657019538065,1,,,69.3415015904134,0.152820044067539
764,1,2,080.jpg,1.96447116079798,2.48212811392432,3.57624127551844,NaN,1,,,,
765,1,2,001.jpg,3.58801338259491,4.10567395818634,5.90566888673493,NaN,1,,,,
766,1,2,001.jpg,5.91743314513633,6.43508889077384,8.63509577345849,NaN,0,,,,
767,1,2,004.jpg,8.64685912624327,9.16452724863802,10.8586384178761,NaN,1,,,,
768,1,2,076.jpg,10.8821663309345,11.399836868306,13.1998287781335,NaN,1,,,,
769,1,2,079.jpg,13.2115900178137,13.7292696113486,14.9292472124375,NaN,1,,,,
770,1,2,079.jpg,14.9410232438513,15.4586672164764,15.5527800761984,NaN,0,,,,
771,1,2,005.jpg,15.5645539945076,16.0821991746211,16.8821989331236,0.0706495472977622,0,,,,
772,1,2,011.jpg,16.9057310723915,17.4233831955639,19.6233897763764,NaN,1,,,,
773,1,2,012.jpg,19.6469219156443,20.1645749444328,22.1645794725146,NaN,1,,,,
774,1,2,081.jpg,22.1881113099107,22.7057839603872,24.5057686252835,NaN,1,,,,
775,1,2,013.jpg,24.5175368080222,25.0704829138872,26.435191527295,NaN,1,,,,
776,1,2,090.jpg,26.4469554838242,26.9646091163568,27.658727530526,NaN,1,,,,
777,1,2,007.jpg,27.6704926945436,28.1881611188105,29.3881492854234,NaN,1,27.8587848258544,,,
778,1,2,010.jpg,29.3999132419526,29.9175704969512,31.1175701347042,NaN,1,,,,
779,1,2,006.jpg,31.1529084925987,31.6940489835815,33.0825381770123,NaN,1,,,,
780,1,2,006.jpg,33.0943296039045,33.6117055140867,35.5175929562365,NaN,0,,,,
781,1,2,087.jpg,35.5293572146379,36.0705556650682,38.4470194807136,NaN,1,,,,
782,1,2,002.jpg,38.4587894746851,38.9764355604152,39.0823184141086,NaN,1,,,,
783,1,2,015.jpg,39.105847836528,39.6235210907485,40.4237409140264,NaN,1,,,,
784,1,2,009.jpg,40.4708048906905,40.9882297041563,43.4941169651829,NaN,1,,,,
785,1,2,089.jpg,43.5058766955026,44.0235279130584,46.5529464077367,NaN,1,,,,
786,1,2,088.jpg,46.5647167035804,47.0941460656554,48.4823693097483,NaN,1,,,,
787,1,2,008.jpg,48.5058951097017,49.0235683639226,50.4235585832657,NaN,1,,,,
788,1,2,003.jpg,50.4353497082857,50.9529900584453,52.8470984504602,NaN,1,,,,
789,1,2,085.jpg,52.8706339103219,53.3882821091565,55.2824055947772,NaN,1,,,,
790,1,2,086.jpg,55.2941746831325,55.8118409942945,57.9059481184463,NaN,1,,,,
791,1,2,014.jpg,57.9412472329645,58.4588960355436,58.6588887302382,NaN,1,,,,
792,1,2,084.jpg,58.6706714028392,59.18833046907,60.3883156169618,NaN,1,,,,
793,1,2,082.jpg,60.4000831959565,60.9179786280574,62.1647934998482,NaN,1,,,,
794,1,2,085.jpg,-1.76498138505576,-1.24731205517264,1.20002801373312,NaN,1,63.4122628303953,,63.9413483601252,
795,1,2,013.jpg,1.21176449989935,1.72941481183852,3.92943980685004,NaN,1,,,,
796,1,2,001.jpg,3.94117810424905,4.45884713226042,5.65883077079116,NaN,1,,,,
797,1,2,009.jpg,5.67059502919255,6.19975904567355,7.08236792113667,NaN,1,,,,
798,1,2,014.jpg,7.0941542162027,6.19975904567355,7.61180060380457,NaN,1,,,,
799,1,2,089.jpg,7.6235437311575,8.19981760886503,10.2471251963302,NaN,1,,,,
800,1,2,015.jpg,10.2588662105782,10.7765138056689,13.211871966374,NaN,1,,,,
801,1,2,086.jpg,13.2235918495735,13.7412439727459,14.4353436708434,NaN,1,,,,
802,1,2,080.jpg,14.447125135956,14.9647630711384,16.4589105254054,NaN,1,,,,
803,1,2,004.jpg,16.4706799156329,16.9883157377108,18.5883107266336,NaN,1,,,,
804,1,2,077.jpg,18.6118446771343,19.2354460658667,21.4353835179636,NaN,1,,,,
805,1,2,077.jpg,21.4471468707484,21.9648171062481,23.9765931376619,NaN,0,,,,
806,1,2,077.jpg,23.9883534717255,24.5060158585502,24.7648310527397,0.588330952065462,1,,,,
807,1,2,003.jpg,24.7765756894532,25.2942634335359,27.2472396058638,NaN,1,,,,
808,1,2,006.jpg,27.2589649227616,27.7765962167578,28.7766028579445,NaN,1,,,,
809,1,2,081.jpg,28.7883924736038,29.3060162207967,30.5060324615165,NaN,1,,,,
810,1,2,008.jpg,30.5178024554884,31.0354491449625,33.2472951503341,NaN,1,,,,
811,1,2,090.jpg,33.2590120148125,33.7766393844709,34.5178097004191,NaN,1,,,,
812,1,2,012.jpg,34.5295736569483,35.0472478167853,35.2472459451783,NaN,1,,,,
813,1,2,002.jpg,35.2590198634875,35.7766393844709,37.7766750053811,NaN,1,,,,
814,1,2,076.jpg,37.7884401693987,38.3060693502898,40.3060762933487,NaN,1,,,,
815,1,2,084.jpg,40.3178426648547,40.8354878449682,42.5178724898201,NaN,1,,,,
