Trial,nBack,Valence,Image,imagePresentationTime,NoisePresentationTime,x,RT,Accuracy,Clock_1,Clock_2,Clock_3,dataOneMinPress_1,dataOneMinPress_2
1,1,0,047.jpg,0.0135836744748303,1.0488629506317,1.13126669168105,NaN,1,,,,,
2,1,0,059.jpg,1.1429766413803,1.66060707233737,2.6603722152604,NaN,1,,,,,
3,1,0,046.jpg,2.67213740769057,3.18980828960957,4.98981994190126,NaN,1,,,,,
4,1,0,054.jpg,5.00156732383311,5.5192351870237,6.91923995661455,NaN,1,,,,,
5,1,0,048.jpg,6.93099126289326,7.44864916427923,9.34277662043041,NaN,1,,,,,
6,1,0,018.jpg,9.35454151098747,9.87221480788958,12.3663480599989,NaN,1,,,,,
7,1,0,023.jpg,12.3780933288208,12.8957482114783,15.3898808598424,NaN,1,,,,,
8,1,0,049.jpg,15.4016442410357,15.9193015386754,17.2134422168574,NaN,1,,,,,
9,1,0,022.jpg,17.2251853725693,17.7428650088004,20.2369931290714,NaN,1,,,,,
10,1,0,016.jpg,20.2487613402309,20.7664077704485,21.0605116201423,NaN,1,,,,,
11,1,0,026.jpg,21.072275906954,21.5899329027216,21.6840619889854,NaN,1,,,,,
12,1,0,025.jpg,21.6958120877734,22.2134820640731,22.9075885702487,NaN,1,,,,,
13,1,0,029.jpg,22.9193483289673,23.437005626608,24.9311304262774,NaN,1,,,,,
14,1,0,030.jpg,24.9428950149622,25.460565293135,26.754675784031,NaN,1,,,,,
15,1,0,024.jpg,26.7664391652243,27.284094651628,29.578239254156,NaN,1,,,,,
16,1,0,053.jpg,29.5899905604356,30.1076457449662,31.5076505145571,NaN,1,,,,,
17,1,0,019.jpg,31.5194154051142,32.0370820608132,33.1312063171117,NaN,1,,,,,
18,1,0,027.jpg,33.1429579252635,33.6606131097942,35.0606202943682,NaN,1,,,,,
19,1,0,021.jpg,35.0723848830521,35.5900608968095,37.3900511161291,NaN,1,,,,,
20,1,0,050.jpg,37.4018546464113,35.5900608968095,37.9194666631247,NaN,1,,,,,
21,1,0,060.jpg,37.9312496660523,38.4489018318545,40.4489142086413,NaN,1,,,,,
22,1,0,017.jpg,40.4606700430131,40.9783370005853,41.2724535289381,NaN,1,,,,,
23,1,0,057.jpg,41.2842114764208,41.8018533785453,43.0018601404972,NaN,1,,,,,
24,1,0,028.jpg,43.0136232198174,43.531291083008,44.1313216325398,NaN,1,,,,,
25,1,0,058.jpg,44.1430599582864,44.6607003510471,45.5548422970951,NaN,1,,,,,
26,1,0,058.jpg,45.5665957164838,46.0842406373376,47.7783673689937,0.753017596470272,1,,,,,
27,1,0,056.jpg,47.7901325614239,48.307786538463,48.7077861762155,NaN,1,,,,,
28,1,0,055.jpg,48.7195646510509,49.2372104775231,49.9313498878391,NaN,1,,,,,
29,1,0,020.jpg,49.9431099484309,50.460746718717,50.9548615565827,NaN,1,,,,,
30,1,0,052.jpg,50.9666527100781,51.4842855560173,51.9784148837798,NaN,1,,,,,
31,1,0,051.jpg,51.9901658881863,52.5078204689707,53.3078236688234,NaN,1,,,,,
32,1,0,051.jpg,53.319598219312,53.8372446495296,56.0372580526846,0.494183363002776,1,,,,,
33,1,0,056.jpg,56.0490561492552,56.5666784296445,57.7666836822327,NaN,1,,,,,
34,1,0,030.jpg,57.778459742085,58.2961085872857,59.2961318314956,NaN,1,,,,,
35,1,0,018.jpg,59.3078704591153,59.8255506990918,60.2255225645422,NaN,1,,,,,
36,1,0,048.jpg,60.2373076805807,60.754964072602,63.2490997396944,NaN,1,,,,,
37,1,0,026.jpg,63.2608447066441,63.7785436627373,64.7785032117754,NaN,1,,,,,
38,1,0,060.jpg,64.7902681023334,65.3079287205746,67.4020381851042,NaN,1,,,,,
39,1,0,021.jpg,67.4138386966579,67.9314769763087,69.425601474105,NaN,1,,,,,
40,1,0,020.jpg,69.4373648552983,69.9550224548111,70.8491592690207,NaN,1,,,,,
41,1,0,054.jpg,70.8726775789673,71.4020928240898,73.590341638559,NaN,1,,,,,
42,1,0,017.jpg,73.6021264527253,74.1197807316366,76.1197834484919,NaN,1,,,,,
43,1,0,055.jpg,76.1315432072115,76.6492068441812,77.8491985124911,NaN,1,,,,,
44,1,0,055.jpg,77.8609597805744,78.3786279456372,80.4727500888257,0.458902879353445,1,,,,,
45,1,0,050.jpg,80.4845161868743,81.0021825407002,83.2963017859092,NaN,1,,,,,
46,1,0,052.jpg,83.3080757326525,83.8257209553785,84.9198654371585,NaN,1,,,,,
47,1,0,053.jpg,84.9316218752756,85.4492670980026,86.2492935420642,NaN,1,,,,,
48,1,0,016.jpg,86.2728136632477,86.790474281489,88.2845827800247,NaN,1,,,,,
49,1,0,024.jpg,88.3081167873597,88.8257752924919,91.1198954433194,NaN,1,,,,,
50,1,0,024.jpg,91.1316606357495,91.6493366495069,93.449329887555,0.811859859756623,1,,,,,
51,1,0,024.jpg,93.4611029286798,93.9787511701343,94.8728686644808,0.776581791089484,1,,,,,
52,1,0,049.jpg,94.8964002568327,95.4140554413634,97.3081949724283,NaN,1,,,,,
53,1,0,028.jpg,97.319976164119,97.8376216887182,100.237621930217,NaN,1,,,,,
54,1,0,051.jpg,100.249386217029,100.778806292116,102.167049491752,NaN,1,,,,,
55,1,0,058.jpg,102.190585310324,102.708239891108,104.108246170063,NaN,1,,,,,
56,1,0,022.jpg,104.131773536195,104.649445927478,105.449430713086,NaN,1,,,,,
57,1,0,029.jpg,105.472963814803,105.990628961137,106.084728463862,NaN,1,,,,,
58,1,0,025.jpg,106.108315600819,106.62593063626,107.025912161642,NaN,1,,,,,
59,1,0,047.jpg,107.049444055867,107.56712188086,107.767193243602,NaN,1,,,,,
60,1,0,046.jpg,107.790632764735,108.308298816688,109.508286258778,NaN,1,,,,,
61,1,0,046.jpg,109.520049941843,108.308298816688,110.037719616271,NaN,0,,,,,
62,1,0,019.jpg,110.061244567421,110.578889186401,112.873020808397,0.270684554041509,0,,,,,
63,1,0,023.jpg,112.896554815732,113.414258299918,115.014215796221,NaN,1,,,,,
64,1,0,023.jpg,115.025977969923,113.414258299918,115.543684472837,0.506017080570018,1,,,,,
65,1,0,057.jpg,115.555401365612,113.414258299918,116.073088548665,0.1294853399977,0,,,,,
66,1,0,059.jpg,116.084834723105,116.602504699405,117.096615311051,NaN,1,,,,,
67,1,0,027.jpg,117.120116716118,117.637786088672,118.731932985434,NaN,1,,,,,
68,1,0,054.jpg,118.743690329171,119.261336759389,119.555455400852,NaN,1,,,,,
69,1,0,023.jpg,119.5671970472,119.261336759389,120.084847099892,NaN,1,,,,,
70,1,0,059.jpg,120.096612896068,120.614269589963,122.414298147134,NaN,1,,,,,
71,1,0,022.jpg,122.426050660905,122.94370101547,123.837833301586,NaN,1,,,,,
72,1,0,020.jpg,123.849584909738,124.367258206639,126.367255791657,NaN,1,,,,,
73,1,0,046.jpg,126.379018267231,126.896685224803,127.990812197957,NaN,1,,,,,
74,1,0,057.jpg,128.002576786642,128.520234386155,129.614341737573,NaN,1,,,,,
75,1,0,057.jpg,129.626102401911,130.143768755737,130.237874899664,0.435367966400008,1,,,,,
76,1,0,029.jpg,130.249639186476,130.767297087862,130.861408061755,NaN,1,,,,,
77,1,0,029.jpg,130.873174461677,131.390836891156,131.590828861338,0.564814364800441,1,,,,,
78,1,0,028.jpg,131.602606732428,132.120250445791,133.614376754824,0.717777261910669,0,,,,,
79,1,0,019.jpg,133.626137721035,134.143809810445,134.743795984668,NaN,1,,,,,
80,1,0,053.jpg,134.75556027148,135.273242624567,137.367348466621,NaN,1,,,,,
81,1,0,050.jpg,137.379128148948,137.896774277293,140.09683869696,NaN,1,,,,,
82,1,0,018.jpg,140.120311424106,140.637986532244,143.132148462274,NaN,1,,,,,
83,1,0,056.jpg,143.143872298125,143.661541066933,144.86155688507,NaN,1,,,,,
84,1,0,051.jpg,144.87331241757,145.390989336945,145.88506915756,NaN,1,,,,,
85,1,0,027.jpg,145.896832538753,146.414506439401,146.908633955925,NaN,1,,,,,
86,1,0,060.jpg,146.932146228415,147.449794469871,148.743917035681,NaN,1,,,,,
87,1,0,025.jpg,148.755684643093,149.273395975974,151.167512866575,NaN,1,,,,,
88,1,0,026.jpg,151.179236702425,151.696906980598,152.591009683175,NaN,1,,,,,
89,1,0,021.jpg,152.614544898001,153.132207629353,154.226342753074,NaN,1,,,,,
90,1,0,024.jpg,154.249872534189,154.767515643805,156.367513289197,NaN,1,,,,,
91,1,0,048.jpg,156.37929146216,156.896964155316,159.191067401263,NaN,1,,,,,
92,1,0,017.jpg,159.214599597361,159.732252065036,160.132270720778,NaN,1,,,,,
93,1,0,017.jpg,160.144033498226,160.661679928444,162.461732937316,0.658894245790179,1,,,,,
94,1,0,017.jpg,162.473469451826,162.991131277558,164.485233134892,1.08243302271603,1,,,,,
95,1,0,047.jpg,164.497027005243,165.014652606234,166.108781692498,NaN,1,,,,,
96,1,0,030.jpg,166.120542658708,166.638193315146,168.838212453885,NaN,1,,,,,
97,1,0,049.jpg,168.861741329381,169.379484660783,170.37939953264,NaN,1,,,,,
98,1,0,055.jpg,170.391181328077,170.908841946319,171.308850640256,NaN,1,,,,,
99,1,0,016.jpg,171.320599833426,171.838242339297,173.43824964462,NaN,1,,,,,
100,1,0,052.jpg,173.450045628081,173.967694775154,175.567680949378,NaN,1,,,,,
101,1,0,058.jpg,175.57946757478,176.097118231218,176.897104526191,NaN,1,,,,,
102,1,0,057.jpg,176.908876359824,177.42653969492,179.426537279938,NaN,1,,,,,
103,1,0,019.jpg,179.43830156675,179.955976071143,182.450093927737,NaN,1,,,,,
104,1,0,051.jpg,182.46185730893,182.979515210316,185.473649066171,NaN,1,,,,,
105,1,0,048.jpg,185.485428144752,186.00308302741,186.297204989475,NaN,1,,,,,
106,1,0,018.jpg,186.308965653812,186.826608763428,187.426607616312,NaN,1,,,,,
107,1,0,027.jpg,187.438370091887,186.826608763428,187.956022861435,NaN,1,,,,,
108,1,0,050.jpg,187.967786846373,188.485445955251,189.979572566157,NaN,1,,,,,
109,1,0,021.jpg,189.991335645478,190.509011055489,190.708989743266,NaN,1,,,,,
110,1,0,046.jpg,190.720758860043,191.238423704504,192.238412837082,NaN,1,,,,,
111,1,0,029.jpg,192.261942014451,192.779639763054,194.979631431363,NaN,1,,,,,
112,1,0,053.jpg,194.991385756371,195.509050902705,196.909064728481,NaN,1,,,,,
113,1,0,053.jpg,196.920809695431,197.438465181835,198.3326080335,0.43537279636621,1,,,,,
114,1,0,023.jpg,198.344366584728,198.862022674877,199.356124834083,NaN,1,,,,,
115,1,0,047.jpg,199.367890932132,199.885559700941,200.979666448613,NaN,1,,,,,
116,1,0,055.jpg,200.991430433553,201.509088636812,203.90912812178,NaN,1,,,,,
117,1,0,017.jpg,203.920881541169,204.43852616015,204.732642084758,NaN,1,,,,,
118,1,0,020.jpg,204.744422974576,205.262076951615,206.462068016179,NaN,1,,,,,
119,1,0,026.jpg,206.473834114227,206.99149050625,209.191503909404,NaN,1,,,,,
120,1,0,016.jpg,209.203266988724,209.720926399475,209.815037071495,NaN,1,,,,,
121,1,0,056.jpg,209.826814036966,210.344487635741,212.038585991349,NaN,1,,,,,
122,1,0,049.jpg,212.050352089397,212.568025990045,215.062143846639,NaN,1,,,,,
123,1,0,054.jpg,215.073924434584,215.591580524733,216.285703633915,NaN,1,,,,,
124,1,0,054.jpg,216.297459468286,216.815167480566,217.109249293541,0.635374124606642,1,,,,,
125,1,0,052.jpg,217.120995467983,217.63865246375,219.332795798413,NaN,1,,,,,
126,1,0,022.jpg,219.344551934658,219.862189006817,222.156325458778,NaN,1,,,,,
127,1,0,025.jpg,222.168097896157,222.685744628247,224.17986972979,NaN,1,,,,,
128,1,0,060.jpg,224.191639450313,224.709309426613,227.00342414373,NaN,1,,,,,
129,1,0,059.jpg,227.015234315215,227.532843916944,228.026961773538,NaN,1,,,,,
130,1,0,024.jpg,228.050497290238,228.568148852294,230.462277214064,NaN,1,,,,,
131,1,0,058.jpg,230.474045425222,230.991699402261,231.88581931159,NaN,1,,,,,
132,1,0,030.jpg,231.897589333987,232.415244518517,233.415244518517,NaN,1,,,,,
133,1,0,028.jpg,233.427013333421,233.944693875271,234.344664231357,NaN,1,,,,,
134,1,0,049.jpg,234.356451460506,234.874086117682,236.968217618929,NaN,1,,,,,
135,1,0,027.jpg,236.979981301995,237.497646750203,239.097648018069,NaN,1,,,,,
136,1,0,059.jpg,239.109409889898,239.627080771816,241.521196756798,NaN,1,,,,,
137,1,0,047.jpg,241.532961647356,242.050619548742,244.050670867126,NaN,1,,,,,
138,1,0,029.jpg,244.062395004849,244.580074339207,244.674165691365,NaN,1,,,,,
139,1,0,060.jpg,244.685932996906,245.203588181436,247.603603214704,NaN,1,,,,,
140,1,0,056.jpg,247.615367501516,248.13302842163,249.333030051744,NaN,1,,,,,
141,1,0,058.jpg,249.344809734071,249.86245103245,251.756579997965,NaN,1,,,,,
142,1,0,058.jpg,251.768361189656,252.286052900801,254.18014624532,NaN,0,,,,,
143,1,0,057.jpg,254.191902683438,254.709570546628,256.803695708545,NaN,1,,,,,
144,1,0,024.jpg,256.815449127934,257.33310914243,257.733117534495,NaN,1,,,,,
145,1,0,022.jpg,257.744868237029,258.262526742161,259.356647375985,NaN,1,,,,,
146,1,0,021.jpg,259.368415889016,259.886070469801,261.48607837887,NaN,1,,,,,
147,1,0,017.jpg,261.497847495647,262.015511736363,264.415516505954,NaN,1,,,,,
148,1,0,023.jpg,264.427302225738,264.944947448465,267.039076534728,NaN,1,,,,,
149,1,0,020.jpg,267.050851990836,267.568489968614,269.862620684991,NaN,1,,,,,
150,1,0,052.jpg,269.874430856476,270.392043175062,271.886171597206,NaN,1,,,,,
151,1,0,028.jpg,271.897933770908,272.415648122516,273.909721603802,NaN,1,,,,,
152,1,0,019.jpg,273.921484079377,274.439151036948,276.63917259067,NaN,1,,,,,
153,1,0,019.jpg,276.650915746382,274.439151036948,277.168606551908,NaN,0,,,,,
154,1,0,018.jpg,277.180348198256,277.69800791088,279.992126854216,0.317702759692111,0,,,,,
155,1,0,055.jpg,280.003893254137,280.521542401211,281.521565343547,NaN,1,,,,,
156,1,0,055.jpg,281.533361327009,280.521542401211,282.050963080044,0.400083256531616,1,,,,,
157,1,0,050.jpg,282.062729781839,282.58039040008,284.474513328139,0.0236251729356809,0,,,,,
158,1,0,051.jpg,284.486305387252,285.003981099137,285.403935455962,NaN,1,,,,,
159,1,0,030.jpg,285.415708798959,285.933375152785,286.227469946293,NaN,1,,,,,
160,1,0,025.jpg,286.23926442039,286.756893341983,288.25101904727,NaN,1,,,,,
161,1,0,025.jpg,288.262781824718,288.780443348578,289.380461521324,NaN,0,,,,,
162,1,0,016.jpg,289.392218261314,289.909874049591,290.709884796264,NaN,1,,,,,
163,1,0,053.jpg,290.721643951238,291.239295211421,292.239297928277,NaN,1,,,,,
164,1,0,053.jpg,292.251055573885,292.768722229584,293.768755435598,0.541262546968028,1,,,,,
165,1,0,054.jpg,293.780487422015,294.298136870961,295.298138682198,NaN,1,,,,,
166,1,0,054.jpg,295.309930741312,295.82756026665,297.321685066319,0.541261339475568,1,,,,,
167,1,0,048.jpg,297.333456296207,297.851111480737,298.251105684779,NaN,1,,,,,
168,1,0,026.jpg,298.262874801556,298.780538438526,299.180533246313,NaN,1,,,,,
169,1,0,046.jpg,299.192293306905,299.70998713116,299.909945291583,NaN,1,,,,,
170,1,0,053.jpg,299.921707163412,300.439360838578,301.239367057159,NaN,1,,,,,