Trial,nBack,Valence,Image,imagePresentationTime,NoisePresentationTime,x,RT,Accuracy,Clock_1,Clock_2,Clock_3,dataOneMinPress_1,dataOneMinPress_2
1,1,0,046.jpg,0.00996935085004225,0.527548463422136,2.23321820909132,NaN,1,1.06858762448155,,,,
2,1,0,046.jpg,2.24496830787939,2.76262017180852,4.36262747713135,NaN,0,,,,,
3,1,0,049.jpg,4.37443704487032,4.89204996720218,5.58617700073046,NaN,1,,,,,
4,1,0,059.jpg,5.59794823061748,6.115607339495,6.40970394424039,NaN,1,,,,,
5,1,0,059.jpg,6.42148755091512,6.93912432120123,7.03323982318761,NaN,0,,,,,
6,1,0,059.jpg,7.04502795795452,7.56267167131591,8.05677926423323,0.600117187040269,1,,,,,
7,1,0,026.jpg,8.06854023044434,8.58619601872033,10.9862095426233,NaN,1,,,,,
8,1,0,057.jpg,10.9979723200713,11.5156504469378,13.0097725297519,NaN,1,,,,,
9,1,0,022.jpg,13.0215359109452,13.5391865673828,14.139192665215,NaN,1,,,,,
10,1,0,054.jpg,14.1509403490199,14.668611230938,15.7627170729929,NaN,1,,,,,
11,1,0,021.jpg,15.7744813598047,16.2921389593175,18.7862700983169,NaN,1,,,,,
12,1,0,021.jpg,18.7980343851295,19.3157043614292,19.8098059168897,0.623714587673021,1,,,,,
13,1,0,055.jpg,19.8215865048351,20.3392284069596,20.9392601639838,NaN,1,20.7981512099223,,,,
14,1,0,047.jpg,20.9510078477888,21.4686482405496,22.9627727383458,NaN,1,,,,,
15,1,0,018.jpg,22.9745394401407,21.4686482405496,23.4921885872145,NaN,1,,,,,
16,1,0,017.jpg,23.5039534777716,24.0216258690543,25.4216143375115,NaN,1,,,,,
17,1,0,023.jpg,25.4333786243233,25.9510473931323,28.3510482383763,NaN,1,,,,,
18,1,0,029.jpg,28.362835769397,28.8804692190824,29.3746012637002,NaN,1,,,,,
19,1,0,053.jpg,29.3863525699799,29.9040074526374,31.5040307572208,NaN,1,,,,,
20,1,0,048.jpg,31.5157802522635,32.0334366442848,33.9275647041814,NaN,1,,,,,
21,1,0,024.jpg,33.9393283872478,34.4569850811422,36.6570162947946,NaN,1,,,,,
22,1,0,025.jpg,36.6687645823458,37.1864330492817,39.080592503954,NaN,1,,,,,
23,1,0,025.jpg,39.0923178491685,39.6099660906229,41.4100049114713,0.517726728395246,1,41.1394640489061,,,,
24,1,0,056.jpg,41.4217631608262,41.9393975161302,44.2335273268891,NaN,1,,,,,
25,1,0,030.jpg,44.2452919155739,44.7629513263237,45.4570732280145,NaN,1,,,,,
26,1,0,051.jpg,45.4688305717509,45.9864884731369,48.1864994613079,NaN,1,,,,,
27,1,0,016.jpg,48.1982682762127,48.7159343281655,50.9159326376775,NaN,1,,,,,
28,1,0,019.jpg,50.927696320744,51.4453708251367,53.0453793379511,NaN,1,,,,,
29,1,0,050.jpg,53.0571493603466,53.5747960924373,53.8688978290211,NaN,1,,,,,
30,1,0,058.jpg,53.8806630214522,54.3983462801571,56.4924481978651,NaN,1,,,,,
31,1,0,058.jpg,56.504229993302,54.3983462801571,57.0218631411144,NaN,0,,,,,
32,1,0,028.jpg,-2.01253345883197,-1.49487978366597,0.799288968691144,0.0118361325503429,0,57.9631355895108,,,59.0454949552523,
33,1,0,027.jpg,0.811030615039272,-1.49487978366597,1.32866919656226,NaN,1,1.22287513965421,,,,
34,1,0,060.jpg,1.34043438899334,1.85808836603155,4.05810388229656,NaN,1,,,,,
35,1,0,020.jpg,4.06986937659985,4.58752244801963,5.88164169322954,NaN,1,,,,,
36,1,0,052.jpg,5.89343043174176,6.41106901326566,6.90518354925825,NaN,1,,,,,
37,1,0,048.jpg,6.91694662857844,7.43460513371065,9.328751909723,NaN,1,,,,,
38,1,0,057.jpg,9.34051015907789,9.85816715484543,11.352292256388,NaN,1,,,,,
39,1,0,056.jpg,11.3640426570491,11.8817319532109,13.3758323011798,NaN,1,,,,,
40,1,0,030.jpg,13.3876089647783,13.9052590174706,16.3993783834285,NaN,1,,,,,
41,1,0,025.jpg,16.4111435758596,16.9288008734993,18.5288238762105,NaN,1,,,,,
42,1,0,022.jpg,18.5405785030916,19.0582282539108,20.6582572940788,NaN,1,,,,,
43,1,0,052.jpg,20.6700098078491,21.1876728410734,22.9876905308229,NaN,1,,,,,
44,1,0,026.jpg,22.9994463651947,23.517100644106,24.117099798862,NaN,1,,,,,
45,1,0,060.jpg,24.1288782736983,24.646514138366,26.7406377909192,NaN,1,,,,,
46,1,0,054.jpg,26.7524280387961,27.2700599791169,27.8700609451098,NaN,1,,,,,
47,1,0,024.jpg,27.8818222131931,28.3994807183244,30.8936347996605,NaN,1,,,,,
48,1,0,018.jpg,30.9053951621254,31.423035253014,33.3171654260195,NaN,1,32.576134294779,,,,
49,1,0,019.jpg,33.3289414858727,33.8466036134787,36.2466566827252,NaN,1,,,,,
50,1,0,023.jpg,36.2583796129575,36.7760218169551,37.7760254394288,NaN,1,,,,,
51,1,0,023.jpg,37.7877894243684,38.305482644877,39.9995719442995,0.753049896864468,1,,,,,
52,1,0,051.jpg,40.0113404573312,40.5290077167756,42.9290079582743,NaN,1,,,,,
53,1,0,047.jpg,42.9407867349828,43.4584443344957,45.7525982950829,NaN,1,,,,,
54,1,0,047.jpg,45.764342054541,46.2820075027485,47.4819870961437,0.57654544559864,1,,,,,
55,1,0,058.jpg,47.4938078331779,48.0114298116951,48.8114106729563,NaN,1,47.5644155907667,,,,
56,1,0,050.jpg,48.8231788841149,49.3408340686456,49.834960981425,NaN,1,,,,,
57,1,0,059.jpg,49.8467180232883,50.3643886033342,52.858520647952,NaN,1,,,,,
58,1,0,029.jpg,52.8702725579769,53.3879413267859,53.9879329347204,NaN,1,,,,,
59,1,0,055.jpg,53.9997044664806,54.5173424442592,56.3173565115339,NaN,1,,,,,
60,1,0,020.jpg,56.3291174777441,56.8467928877553,56.9409044653939,NaN,1,,,,,
61,1,0,027.jpg,56.9526660353504,57.4703097487127,58.0703122240693,NaN,1,57.8115764011509,,,,
62,1,0,016.jpg,-0.800735241511575,-0.283089415040195,1.7169229617466,NaN,1,1.22290532693842,,,58.7292523545329,0.152607290892774
63,1,0,017.jpg,1.74045213911631,2.2581079273923,3.95225367703733,NaN,1,,,,,
64,1,0,017.jpg,3.96401434137533,4.48166077159294,4.7757788093104,0.47065026128621,1,,,,,
65,1,0,028.jpg,4.78753947364839,5.30519496005127,7.19932060496467,NaN,1,,,,,
66,1,0,053.jpg,7.2110894198695,7.72874218941706,8.7287455100186,NaN,1,,,,,
67,1,0,046.jpg,8.74051372117719,9.25817132069096,9.95230227856609,NaN,1,,,,,
68,1,0,049.jpg,9.96405358484571,10.481707863757,12.7758364670253,NaN,1,,,,,
69,1,0,049.jpg,12.7876022632008,10.481707863757,13.3052716357552,NaN,0,,,,,
70,1,0,021.jpg,13.3170223382886,13.8346880883691,13.9287951379147,0.141267135435555,0,,,,,
71,1,0,021.jpg,13.9405533872696,14.4582215523324,14.6582120131507,NaN,0,,,,,
72,1,0,059.jpg,14.6699729793609,15.1876462762621,15.2817451752417,NaN,1,,,,,
73,1,0,027.jpg,15.2935058395788,15.8111869851746,17.5052898688755,NaN,1,,,,,
74,1,0,021.jpg,17.5170740792955,18.0347108495816,18.9288325701482,0.682424328777415,0,,,,,
75,1,0,047.jpg,18.9406258367535,19.4582526452359,20.9523949535314,NaN,1,,,,,
76,1,0,026.jpg,20.9641462598102,21.4818002368493,22.2818004179726,NaN,1,,,,,
77,1,0,023.jpg,22.2935668178943,22.8112401147964,25.1053635862254,NaN,1,,,,,
78,1,0,024.jpg,25.1171212318341,25.6347933212446,27.7289048988832,NaN,1,,,,,
79,1,0,024.jpg,27.7406909205401,28.2583325207925,29.6583520821523,NaN,0,,,,,
80,1,0,054.jpg,29.6701136521087,30.1877552523611,32.081924970711,NaN,1,,,,,
81,1,0,017.jpg,32.0936792957182,32.6113151603868,32.8113016968573,NaN,1,,,,,
82,1,0,058.jpg,32.8230665874153,33.3407413936802,33.6348470546118,NaN,1,,,,,
83,1,0,029.jpg,33.646599568382,33.3407413936802,34.164259582878,NaN,1,,,,,
84,1,0,051.jpg,34.1760404726965,34.6936775448557,37.0936971062165,NaN,1,,,,,
85,1,0,060.jpg,37.1054601855367,37.6231253318711,39.4231252111222,NaN,1,38.5408423399613,,,,
86,1,0,019.jpg,39.434889799807,39.952541361863,40.8466670067764,NaN,1,,,,,
87,1,0,016.jpg,40.8584617827464,41.3760831575173,42.9760928778232,NaN,1,,,,,
88,1,0,028.jpg,42.9878689376765,43.5055144622756,44.1055299181653,NaN,1,,,,,
89,1,0,052.jpg,44.1172884693924,44.6349572382014,46.3291389107162,NaN,1,,,,,
90,1,0,053.jpg,46.3408808589365,46.8585040449452,49.3526315614699,NaN,1,,,,,
91,1,0,053.jpg,49.3644097344331,49.8820543534139,52.3761900205063,NaN,0,,,,,
92,1,0,046.jpg,52.3879588354102,49.8820543534139,52.9056384716414,NaN,1,,,,,
93,1,0,055.jpg,52.9173544587975,53.4350280575718,55.5291646906571,NaN,1,,,,,
94,1,0,030.jpg,55.5409018089122,56.0585802376527,56.5526808874938,NaN,1,,,,,
95,1,0,018.jpg,56.5644500042717,57.0821344704682,57.2821122526266,NaN,1,,,,,
96,1,0,057.jpg,57.2938783506752,57.811540176408,59.5056557387688,NaN,1,59.0352684087347,,,,
97,1,0,048.jpg,59.5174076487938,60.0351253210038,60.5292087640928,NaN,1,,,,,
98,1,0,056.jpg,60.5409564478987,61.0586197829953,62.7527498352529,NaN,1,61.6352286218926,,,,
99,1,0,050.jpg,62.7644984246763,63.2821816833821,64.9763223011887,NaN,1,,,,,
100,1,0,022.jpg,64.9998460448469,65.5174982106482,65.9174652461334,NaN,1,,,,,
101,1,0,025.jpg,65.9292340610382,66.4469399602067,68.4469303002761,NaN,1,,,,,
102,1,0,020.jpg,68.4586686260227,68.9763618465322,71.270452715693,NaN,1,,,,,
103,1,0,049.jpg,71.2822209268525,71.7998893937875,72.4939901643784,NaN,1,,,,,
104,1,0,046.jpg,72.5057547530632,71.7998893937875,73.0234241256176,NaN,1,,,,,
105,1,0,049.jpg,73.0351736206594,73.5528348426469,75.9528676864129,NaN,1,,,,,
106,1,0,048.jpg,75.964609332761,76.4822654229101,76.882272305611,NaN,1,,,,,
107,1,0,023.jpg,76.8940323662027,77.411688758225,77.6116852565001,NaN,1,,,,,
108,1,0,051.jpg,77.623449845184,78.1411204252299,79.2352313991232,NaN,1,,,,,
109,1,0,056.jpg,79.2469911578419,79.764647247991,80.364669948829,NaN,1,,,,,
110,1,0,057.jpg,80.3764161232702,80.8940867033161,81.494123894051,NaN,1,,,,,
111,1,0,053.jpg,81.5058857658796,82.0235234417851,83.6235256152695,NaN,1,,,,,
112,1,0,058.jpg,83.6352938264281,84.152936634172,85.352924378134,NaN,1,,,,,
113,1,0,047.jpg,85.3646925892926,85.8823489813149,86.1764778864554,NaN,1,,,,,
114,1,0,030.jpg,86.1882216459135,86.7059055083646,87.3059010406459,NaN,1,,,,,
115,1,0,052.jpg,87.3176686480592,87.83530692771,89.9294547300906,NaN,1,,,,,
116,1,0,060.jpg,89.941207545734,90.4588790313983,91.9529802849856,NaN,1,,,,,
117,1,0,017.jpg,91.964750307382,92.4824012656927,94.2824123142382,NaN,1,,,,,
118,1,0,018.jpg,94.2941759973046,94.8118345024368,95.2118441019929,NaN,1,,,,,
119,1,0,055.jpg,95.2236029550932,95.7412545171501,97.7412656864453,NaN,1,,,,,
120,1,0,026.jpg,97.753046878137,95.7412545171501,98.2706797240762,NaN,1,,,,,
121,1,0,016.jpg,98.2824518595817,98.800121232136,100.400139404882,NaN,1,100.023726904085,,,,
122,1,0,059.jpg,100.411881353102,100.92954680131,101.329530741675,NaN,1,,,,,
123,1,0,050.jpg,101.341295330359,101.858966212278,103.458977140074,NaN,1,,,,,
124,1,0,019.jpg,103.470739011904,103.988380914028,105.482507826808,NaN,1,,,,,
125,1,0,025.jpg,105.49427211362,106.01192941126,108.01196110791,NaN,1,,,,,
126,1,0,028.jpg,108.02373475278,108.541375749286,109.541364881863,NaN,1,,,,,
127,1,0,020.jpg,109.553130074294,110.070784051332,110.56490432291,NaN,1,,,,,
128,1,0,024.jpg,110.576672232196,111.094324397997,111.988446420437,NaN,1,,,,,
129,1,0,054.jpg,112.000215537214,111.094324397997,112.517877966693,NaN,1,,,,,
130,1,0,021.jpg,112.52967032768,113.047331549667,113.447281982145,NaN,1,,,,,
131,1,0,021.jpg,113.459047174576,113.976721075222,116.470835913088,0.494187589221838,1,,,,,
132,1,0,027.jpg,116.482621331,117.000279836131,117.200255807053,NaN,1,117.012117779918,,,,
133,1,0,029.jpg,-0.400165969692353,0.117511553428812,0.611613108888378,NaN,1,,,,117.623854354802,
134,1,0,022.jpg,0.623375886336362,1.14103227835767,2.94104030817562,NaN,1,1.52935426680688,,,,
135,1,0,017.jpg,2.95282632983253,3.47047940125321,4.87047028469351,NaN,1,,,,,
136,1,0,028.jpg,4.88231758653819,5.39990726466021,6.59990164982537,NaN,1,,,,,
137,1,0,054.jpg,6.61167921904234,7.12933229046303,8.52934581436693,NaN,1,,,,,
138,1,0,060.jpg,8.54109259255347,9.05874656959259,11.0587577388878,NaN,1,,,,,
139,1,0,026.jpg,11.0705226294449,11.5881938132361,13.8823127565729,NaN,1,,,,,
140,1,0,050.jpg,13.8940891182983,14.4117615095811,14.6117296318089,NaN,1,,,,,
141,1,0,052.jpg,14.6234942204928,15.1411654042849,17.4353420053349,NaN,1,,,,,
142,1,0,051.jpg,17.447057992491,17.9647765703194,18.8588240301651,NaN,1,,,,,
143,1,0,019.jpg,18.8705877132315,19.3882619157512,20.2823667314387,NaN,1,,,,,
144,1,0,019.jpg,20.2941446025279,20.8118058245154,22.0117935684784,0.505945838577645,1,,,,,
145,1,0,049.jpg,22.0235672133485,22.5412314540636,23.0353761773413,NaN,1,,,,,
146,1,0,047.jpg,23.0470966925905,23.5647527827396,25.4588817482545,NaN,1,,,,,
147,1,0,058.jpg,25.4824254155201,26.0000827131607,27.69419495492,NaN,1,,,,,
148,1,0,025.jpg,27.7059785615938,28.2236316330145,28.6236216108355,NaN,1,,,,,
149,1,0,048.jpg,28.6353819733004,28.2236316330145,29.1530296110095,NaN,1,,,,,
150,1,0,030.jpg,29.1647981240412,28.2236316330145,29.6824466673688,NaN,1,,,,,
151,1,0,030.jpg,29.694211859799,30.2118803267349,30.9060040396625,0.741275044503709,1,,,,,
152,1,0,021.jpg,30.9177631946359,31.4354549057807,31.6354015950355,NaN,1,,,,,
153,1,0,059.jpg,31.6471882204378,32.1648421974769,32.7648492009275,NaN,1,,,,,
154,1,0,023.jpg,32.7765941678763,33.2942478430432,34.6942728381146,NaN,1,,,,,
155,1,0,057.jpg,34.7060220312842,35.2236787251786,36.7178020154843,NaN,1,,,,,
156,1,0,046.jpg,36.7295696228975,37.2472423160525,37.7413405509114,NaN,1,,,,,
157,1,0,018.jpg,37.7531075545794,38.2707754177691,40.1648920064972,NaN,1,39.0002671574712,,,,
158,1,0,020.jpg,40.1766550858174,40.6943132890765,42.4943261488597,NaN,1,,,,,
159,1,0,056.jpg,42.5060934543999,43.0237435070921,44.3178663747758,NaN,1,,,,,
160,1,0,024.jpg,44.329633680316,44.8473054678525,46.5414463875331,NaN,1,,,,,
161,1,0,024.jpg,46.5531789776951,47.0708401996826,47.8708388714422,0.706041954892498,1,,,,,
162,1,0,055.jpg,47.8826348549028,48.4002598521483,48.600257557915,NaN,1,,,,,
163,1,0,053.jpg,48.6120245615821,49.1296767273843,50.5296845157036,NaN,1,,,,,
164,1,0,022.jpg,50.541462990539,51.0591233069081,52.0591115338675,NaN,1,,,,,
165,1,0,027.jpg,52.0708761225515,52.5885575700204,52.7885262959926,NaN,1,,,,,
166,1,0,029.jpg,52.8002905828043,53.3179530122834,55.2120765440868,NaN,1,,,,,
167,1,0,029.jpg,55.2238408308986,55.7414978266661,57.7415138259275,0.600094244703541,1,57.2004200258825,,,,
168,1,0,016.jpg,-0.364898164702936,0.152755510463066,1.44686600135901,NaN,1,0.764592609006286,,,58.1180730369279,
169,1,0,058.jpg,1.45863179753542,1.97629935885288,3.87042983373158,NaN,1,,,,,
170,1,0,049.jpg,3.88219653552642,4.39983662641407,6.69396915402922,NaN,1,,,,,
171,1,0,053.jpg,6.70573162960318,7.22340643586904,7.42338723675584,NaN,1,,,,,
172,1,0,053.jpg,7.43516450410061,7.95280489686047,9.55283333328316,0.517721898429954,1,,,,,
173,1,0,054.jpg,9.56459520511271,10.0822352960004,10.5763561713229,NaN,1,,,,,
174,1,0,027.jpg,10.58811683566,11.1057907363074,12.1999035214376,NaN,1,,,,,
175,1,0,060.jpg,12.211665091394,12.7293184646869,13.3293155063329,NaN,1,,,,,
176,1,0,060.jpg,13.3410806987631,13.8587567125205,14.0587523051772,0.576574727266234,1,,,,,
177,1,0,050.jpg,14.0705162901158,14.5881572866219,15.1881564413779,NaN,1,,,,,
178,1,0,023.jpg,15.1999451798911,15.7175798370672,16.3175771805863,NaN,1,,,,,
179,1,0,047.jpg,16.3293653153532,16.8470002744025,18.2470056477396,NaN,1,,,,,
180,1,0,029.jpg,18.2587702364244,18.7764317602841,20.9764551252429,NaN,1,,,,,
181,1,0,025.jpg,20.9882073371409,21.5058776153137,23.6000202858559,NaN,1,,,,,
182,1,0,022.jpg,23.6117613284578,24.1294303991399,25.1294228523184,NaN,1,,,,,
183,1,0,056.jpg,25.1412553623941,25.658857719176,26.4588557871894,NaN,1,,,,,
184,1,0,019.jpg,26.4706644493099,26.9882779753871,28.9882737491671,NaN,1,,,,,
185,1,0,017.jpg,29.0000664120271,29.5177312564883,30.3176952128706,NaN,1,,,,,
186,1,0,028.jpg,30.3294646315208,30.8471249478898,33.2471342455729,NaN,1,,,,,
187,1,0,024.jpg,33.2588982305124,33.776574546142,34.7765597543721,NaN,1,,,,,
188,1,0,016.jpg,34.7883240411838,35.3059864706629,36.9059892478936,NaN,1,,,,,
189,1,0,026.jpg,36.917767722729,37.4354141529466,38.2354122209599,NaN,1,,,,,
190,1,0,018.jpg,38.2471906957962,38.7648531252744,39.2589797361816,NaN,1,,,,,
191,1,0,018.jpg,39.2707376836634,39.788371435222,41.0825881853607,NaN,0,40.0708057861784,,,,
192,1,0,055.jpg,41.0942622121911,41.6119364147107,41.9060538486829,NaN,1,,,,,
193,1,0,052.jpg,41.9178105886731,42.4354675844406,42.9295694417742,NaN,1,,,,,
194,1,0,057.jpg,42.9413382566781,43.4590034030125,43.7531141957825,NaN,1,,,,,
195,1,0,021.jpg,43.7648824069411,44.2825436289286,44.6825429648079,NaN,1,,,,,
196,1,0,030.jpg,44.7060609728824,45.2237333641651,45.3178376968553,NaN,1,,,,,
197,1,0,030.jpg,45.3296007761755,45.8472695449846,47.9413793113863,0.55301626822984,1,,,,,
198,1,0,046.jpg,47.9649139224666,48.4825775594372,50.8825796121719,NaN,1,,,,,
199,1,0,059.jpg,50.8943487289498,51.4120232333426,53.2120167732637,NaN,1,,,,,
200,1,0,059.jpg,53.2237750226177,53.7414449989183,55.9414472327771,0.458940915333187,1,,,,,
201,1,0,020.jpg,55.953228726341,56.4708799865248,57.9649921075343,NaN,1,,,,,
202,1,0,048.jpg,-0.906122977565246,-0.388468396780809,0.705639860256269,NaN,1,58.2709508058952,,,58.8827220961575,
203,1,0,051.jpg,0.717404448941124,1.23508468891851,1.92922258986982,NaN,1,,,,,
204,1,0,025.jpg,1.94102400704196,2.45863994810134,3.36448610826392,NaN,1,,,,,
205,1,0,025.jpg,3.37625069694877,3.89392308823153,4.89390859833475,0.764839540996036,1,,,,,
206,1,0,051.jpg,4.90567469638336,5.42334769141144,6.42337244498594,NaN,1,,,,,
207,1,0,060.jpg,6.4351322037046,6.95277048335538,7.24686980495608,NaN,1,,,,,
208,1,0,048.jpg,7.25866186407075,7.77629350251846,9.57632688965532,NaN,1,,,,,
209,1,0,055.jpg,9.58812468435372,10.1057222111695,11.5057299994896,NaN,1,,,,,
210,1,0,055.jpg,11.5174963994114,12.0351482633405,12.7292704669035,0.576582575959037,1,,,,,
211,1,0,050.jpg,12.7528023611285,13.2704714318097,14.0704586324009,NaN,1,,,,,
212,1,0,050.jpg,14.0822226173395,14.5998953104954,16.7999096192689,0.764802108763433,1,,,,,
213,1,0,050.jpg,16.8116588124376,17.3293188269336,18.5293195514287,0.788327663658492,1,,,,,
214,1,0,016.jpg,18.5410835363673,19.0587372115333,20.1528638828149,NaN,1,,,,,
215,1,0,052.jpg,20.164671639317,20.6822851653942,21.3881683351674,NaN,1,,,,,
216,1,0,027.jpg,21.4117068705955,21.9293931480297,23.6234957298575,NaN,1,,,,,
217,1,0,049.jpg,23.6352633372708,24.1529191255468,24.4470136171822,NaN,1,,,,,
218,1,0,024.jpg,24.4588029594406,24.9764515027682,25.4705974335366,NaN,1,,,,,
219,1,0,019.jpg,25.4823487398162,25.9999915475601,27.8941057213051,NaN,1,,,,,
220,1,0,057.jpg,27.9059104590788,28.4235439087643,30.2235625041312,NaN,1,,,,,
221,1,0,023.jpg,30.2353213572324,30.7529563162816,33.2470925871194,NaN,1,,,,,
222,1,0,058.jpg,33.2589746043423,33.7765292652139,35.9765281784712,NaN,1,,,,,
223,1,0,047.jpg,35.9882960877576,36.5059645546935,37.105947710188,NaN,1,,,,,
224,1,0,047.jpg,37.117712600746,37.6353789545719,38.4353706832553,0.670684795540183,1,,,,,
225,1,0,029.jpg,38.4471548936754,38.9648073613498,40.3647973391717,NaN,1,39.6237308888067,,,,
226,1,0,056.jpg,40.3765975488523,40.8942385453593,42.3883464401488,NaN,1,,,,,
227,1,0,056.jpg,42.4001110288336,42.9177876463364,45.317783359742,NaN,0,,,,,
228,1,0,059.jpg,45.3295479484268,45.8472073591765,47.2472115250221,NaN,1,,,,,
229,1,0,046.jpg,47.2589794343075,47.7766297888729,47.9766314189865,NaN,1,,,,,
230,1,0,021.jpg,47.9883981207804,48.5060520978195,49.6001872215411,NaN,1,,,,,
231,1,0,026.jpg,49.6119533195897,50.1296085041204,50.4237434467177,NaN,1,,,,,
232,1,0,028.jpg,50.4472629641559,50.9649127149742,52.0590309338158,NaN,1,,,,,
233,1,0,053.jpg,52.0707958243738,50.9649127149742,52.5884709325119,NaN,1,,,,,
234,1,0,018.jpg,52.6002023151832,53.1178550847308,55.0119843521188,NaN,1,,,,,
235,1,0,054.jpg,55.0355135294876,55.553180788932,55.7531670235303,NaN,1,,,,,
236,1,0,054.jpg,55.7649291972321,56.2826079278448,56.9767053778342,0.529513353798393,1,,,,,
237,1,0,020.jpg,-2.20024765648577,-1.68258643449826,0.411545066748658,NaN,1,58.1297660817472,,,59.200367500006,
238,1,0,022.jpg,0.423321730347197,0.940965443709501,3.2350946507222,NaN,1,1.07050119647283,,,,
239,1,0,017.jpg,3.24686648435545,3.76453193256293,5.96453144956649,NaN,1,,,,,
240,1,0,030.jpg,5.98805670258844,6.50571973581282,8.7998507540633,NaN,1,,,,,
241,1,0,030.jpg,8.81162439893342,9.32928652653936,9.92927149327079,0.517743331402016,1,,,,,
242,1,0,020.jpg,9.94103608195564,10.4586933795963,11.5528194471317,NaN,1,,,,,
243,1,0,026.jpg,11.5645885639087,12.0822380128557,12.4822328206419,NaN,1,,,,,
244,1,0,051.jpg,12.4940158235704,13.0116670837542,14.1057780576475,NaN,1,,,,,
245,1,0,046.jpg,14.117541740713,14.6352129245051,17.0352110528929,NaN,1,,,,,
246,1,0,019.jpg,17.0469843958899,17.5646335429637,18.1646339052113,NaN,1,,,,,
247,1,0,049.jpg,18.1763997013868,18.6940733001611,19.0940536180515,NaN,1,,,,,
248,1,0,018.jpg,19.1058378284715,19.6235093141358,20.9176179937949,NaN,1,,,,,
249,1,0,027.jpg,20.9411568310952,21.4588213736843,23.258809781767,NaN,1,,,,,
250,1,0,047.jpg,23.2705635030288,23.7882211025417,26.0823503095553,NaN,1,,,,,
251,1,0,050.jpg,26.094116709477,26.6117824595567,27.9058953654367,NaN,1,,,,,
252,1,0,054.jpg,27.9176593503753,28.4353296285481,29.2353180366308,NaN,1,,,,,
253,1,0,054.jpg,29.2470814178241,29.7647405267016,31.0588621868937,0.882462183633834,1,,,,,
254,1,0,022.jpg,31.0706258699593,31.5882882994383,32.5882867900737,NaN,1,,,,,
255,1,0,029.jpg,32.6000776416968,33.1177080726529,34.2118534600513,NaN,1,,,,,
256,1,0,021.jpg,34.2235987288732,34.7412656864453,35.8353754528471,NaN,1,34.4119592362977,,,,
257,1,0,056.jpg,35.8471379284219,36.3647943204433,37.3647988485363,NaN,1,,,,,
258,1,0,028.jpg,37.3765706821687,37.894237941613,40.2942496542801,NaN,1,,,,,
259,1,0,060.jpg,40.3060027717966,40.8236700312409,41.8236597675641,NaN,1,,,,,
260,1,0,024.jpg,41.8472055479397,42.3648456388273,44.3648583174872,NaN,1,,,,,
261,1,0,024.jpg,44.3766392073057,44.8943100892247,45.0942757964685,0.600093640958221,1,,,,,
262,1,0,017.jpg,45.1060406870265,45.623697682794,47.3178232069577,NaN,1,,,,,
263,1,0,053.jpg,47.3295880975156,47.8472668281283,48.1413785265158,NaN,1,,,,,
264,1,0,052.jpg,48.1531400964723,48.6707880360545,48.8708014392087,NaN,1,,,,,
265,1,0,057.jpg,48.8825515379967,49.400210043128,50.0943358691657,NaN,1,,,,,
266,1,0,058.jpg,50.1178571978407,50.6355054392961,53.0355207744369,NaN,1,,,,,
267,1,0,016.jpg,53.0590475368226,53.5767199281054,53.6708336188549,NaN,1,,,,,
268,1,0,055.jpg,53.6825957925566,54.2002434302658,56.6943941910004,NaN,1,,,,,
269,1,0,025.jpg,-2.04728596686709,-1.52961659431276,0.27037664373529,NaN,1,57.8239314531284,,,58.7532971307282,
270,1,0,059.jpg,0.282162665392207,0.799810001229162,2.3998052316374,NaN,1,1.83518134860515,,,,
271,1,0,048.jpg,2.42334316332017,2.94098868791934,3.63511179710076,NaN,1,,,,,
272,1,0,023.jpg,3.6586566718579,4.17631125264234,4.37629144978382,NaN,1,,,,,
273,1,0,030.jpg,4.38805815157866,4.905727524133,5.90571635483684,NaN,1,,,,,
274,1,0,018.jpg,5.91748305663168,6.43514005239922,7.92926515394174,NaN,1,,,,,
275,1,0,024.jpg,7.94102793138973,8.45879722385689,9.65869078348987,NaN,1,,,,,
276,1,0,051.jpg,9.68224290319631,10.1998775603724,12.3998912653997,NaN,1,,,,,
277,1,0,057.jpg,12.4116709477266,12.929310434869,14.2234339062979,NaN,1,,,,,
278,1,0,022.jpg,14.2351984949828,14.7528748106124,14.9528827800559,NaN,1,,,,,
279,1,0,020.jpg,14.9646340863355,15.4822790071885,17.5764268095691,NaN,1,,,,,
280,1,0,027.jpg,17.588172380265,18.1058411490731,18.905825632809,NaN,1,,,,,
281,1,0,027.jpg,18.9175917308576,19.435263518395,20.4352520472266,0.964833926161191,1,,,,,
282,1,0,050.jpg,20.4470317295536,20.9646769522797,22.4588826538729,NaN,1,,,,,
283,1,0,047.jpg,22.4823617203492,22.9999846044848,25.294138565072,NaN,1,,,,,
284,1,0,017.jpg,25.3058953050622,25.8235628663797,27.6235518782078,NaN,1,,,,,
285,1,0,056.jpg,27.6353158631464,28.1529840282101,28.9529775681303,NaN,1,,,,,
286,1,0,055.jpg,28.9647862302518,29.4823973413459,31.0824170234555,NaN,1,,,,,
287,1,0,016.jpg,31.094193687054,31.6118307592133,31.9059717392674,NaN,1,,,,,
288,1,0,030.jpg,31.9177317998601,32.4353625326894,32.729502305252,NaN,1,,,,,
289,1,0,025.jpg,32.7412593471154,33.2589278140513,33.658906622577,NaN,1,,,,,
290,1,0,028.jpg,33.6706721168803,34.1883375650878,36.188389487218,NaN,1,,,,,
291,1,0,029.jpg,36.2000976256795,36.7177839031137,37.4118710894263,0.506001081308568,0,,,,,
292,1,0,058.jpg,37.4236519792448,37.9413261817645,39.1413199631834,NaN,1,38.6943709467914,38.847272563713,,,
293,1,0,058.jpg,39.1530797219029,39.6707418495089,40.4707667842058,NaN,0,,,,,
294,1,0,026.jpg,40.5060816813593,41.0236689444992,42.4236749215816,NaN,1,,,,,
295,1,0,049.jpg,42.4354422271217,42.9531152221498,44.7531437793214,NaN,1,,,,,
296,1,0,060.jpg,44.7648947837279,42.9531152221498,45.2825384970902,NaN,1,,,,,
297,1,0,021.jpg,45.294305198885,45.8119404598074,47.5060871150708,NaN,1,,,,,
298,1,0,021.jpg,47.5178393269689,48.0354957189902,48.7296161113163,0.658963978417887,1,,,,,
299,1,0,052.jpg,48.7413752662897,49.2590494688093,50.6590364279027,NaN,1,,,,,
300,1,0,054.jpg,50.6708118840097,51.1884610310835,52.4825971811715,NaN,1,,,,,
301,1,0,046.jpg,52.4943557323995,53.0120066907102,54.7061361392216,NaN,1,,,,,
302,1,0,023.jpg,54.7178971054318,55.2355559124362,56.2355574218009,NaN,1,,,,,
303,1,0,019.jpg,56.2591309744794,56.7767686503839,57.2708596402945,NaN,1,,,,,
304,1,0,053.jpg,57.2943903270279,57.8120443040671,59.7061717602182,NaN,1,,,,,
305,1,0,053.jpg,59.717982837321,60.2355945521613,61.4473831095502,0.705955921130226,1,60.8827661695932,,,,
306,1,0,059.jpg,-0.035463116721985,0.482172446073491,0.976346149143865,NaN,1,0.917599881424394,,,61.4945124044089,
307,1,0,048.jpg,0.988068475629916,1.50572547139745,2.39985322942084,NaN,1,,,,,
308,1,0,030.jpg,2.41160212071736,2.92926243708644,3.2233659849071,NaN,1,,,,,
309,1,0,057.jpg,3.23512966797352,3.75278787123261,4.55279167483059,NaN,1,,,,,
310,1,0,017.jpg,4.56455354665923,3.75278787123261,5.08223016416196,NaN,1,,,,,
311,1,0,025.jpg,5.09398056482223,5.61162790065919,7.81165247310855,NaN,1,,,,,
312,1,0,027.jpg,7.82340830748126,8.34107888752624,8.63519843460836,NaN,1,,,,,
313,1,0,021.jpg,8.6469403828296,9.16461096287549,9.7646004577,NaN,1,,,,,
314,1,0,058.jpg,9.77636293327487,10.2940362301761,11.294023249643,NaN,1,,,,,
315,1,0,048.jpg,11.3057869327095,11.8234436266039,12.8234484565701,NaN,1,,,,,
316,1,0,051.jpg,12.8470189905192,13.3646355353249,14.6587635348469,NaN,1,,,,,
317,1,0,051.jpg,14.6705211804565,15.1881956848483,16.4824088125142,0.623632176385399,1,,,,,
318,1,0,050.jpg,16.4940659344647,17.0117380238744,17.3058527409903,NaN,1,,,,,
319,1,0,050.jpg,17.3176025379062,17.8352746273158,19.0352922566899,0.576563859842281,1,,,,,
320,1,0,020.jpg,19.0470601659763,19.5647035774655,19.858826143276,NaN,1,,,,,
321,1,0,024.jpg,19.8706040143661,20.3882371621785,21.5882276229959,NaN,1,,,,,
322,1,0,028.jpg,21.5999904004439,22.1176585655066,24.5176696744275,NaN,1,,,,,
323,1,0,047.jpg,24.5294315462561,25.0470849195499,26.447111725859,NaN,1,,,,,
324,1,0,060.jpg,26.4588548815709,26.9883021252153,27.9765167073037,NaN,1,,,,,
325,1,0,026.jpg,27.988280088497,28.5059382917561,29.4000811434225,NaN,1,,,,,
326,1,0,049.jpg,29.4118354684297,29.9294809930288,30.1294808119055,NaN,1,,,,,
327,1,0,046.jpg,30.1412435893535,30.6589159806363,30.8588946684131,NaN,1,,,,,
328,1,0,046.jpg,30.8706595589701,30.6589159806363,31.3883111210262,NaN,0,,,,,
329,1,0,054.jpg,31.4000726909826,31.9177342148423,34.011880205986,0.258926908432841,0,,,,,
330,1,0,053.jpg,34.0236463040355,34.5412824705763,36.7412994962051,NaN,1,,,,,
331,1,0,055.jpg,36.7648401447423,37.2824832543583,38.9766271927674,NaN,1,,,,,
332,1,0,059.jpg,38.9883757821908,39.5060445509989,41.9060472074807,NaN,1,40.5296498003263,,,,
333,1,0,019.jpg,41.9178202486046,42.4354814705921,44.0354770028734,NaN,1,,,,,
334,1,0,018.jpg,44.0590303300714,44.5766613647738,45.4707924433988,NaN,1,,,,,
335,1,0,016.jpg,45.4825588433205,46.0002161409602,48.2002168654553,NaN,1,,,,,
336,1,0,056.jpg,48.2120128489159,48.7296592791345,50.3296475664674,NaN,1,,,,,
337,1,0,056.jpg,50.3414124570254,50.8590848483082,52.1531947354588,NaN,0,,,,,
338,1,0,029.jpg,52.1767278371753,52.6943772861214,54.8943909911486,NaN,1,,,,,
339,1,0,052.jpg,54.9061622210356,55.4238318954631,57.1179393072562,NaN,1,,,,,
340,1,0,022.jpg,57.1297093296525,57.6473799096984,59.941494023069,NaN,1,,,,,
341,1,0,023.jpg,59.9532607248639,60.4709500210256,62.1650519991081,NaN,1,,,,,
342,1,0,047.jpg,-1.47105597839618,-0.953417698745398,1.45838818614538,NaN,1,63.0357360097787,63.1886623802739,0.764340243303195,63.6475045831849,
343,1,0,047.jpg,1.47013345496816,1.98783392042515,2.68190480560406,NaN,0,,,,,
344,1,0,047.jpg,2.6936690924158,3.21134208744479,3.81134244969235,NaN,0,,,,,
345,1,0,056.jpg,3.82309043536952,4.34076282665228,4.63486214825389,NaN,1,,,,,
346,1,0,020.jpg,4.64663850997931,5.16429822260307,5.36428868342045,NaN,1,,,,,
347,1,0,051.jpg,5.37606353578212,5.8937166072028,6.98784539159351,NaN,1,,,,,
348,1,0,029.jpg,6.99960303720309,7.51724463745541,8.81137173135812,NaN,1,,,,,
349,1,0,025.jpg,8.83490181434627,9.35254975392854,9.55254866718587,NaN,1,,,,,
350,1,0,025.jpg,9.56431476523449,10.0819838359166,11.3760964399225,0.529514259416828,1,,,,,
351,1,0,030.jpg,11.3878631417174,11.9055252693233,13.9996591855534,NaN,1,,,,,
352,1,0,030.jpg,14.011427396712,11.9055252693233,14.5290635632527,NaN,0,,,,,
353,1,0,059.jpg,14.5408284538098,15.0584842420858,15.2584810422341,NaN,1,,,,,
354,1,0,018.jpg,15.2702444234274,15.7879183240739,17.8820443916102,NaN,1,,,,,
355,1,0,018.jpg,17.8937978109989,18.4114662779348,19.0114527540309,0.611867285828339,1,,,,,
356,1,0,027.jpg,19.0232230783004,19.5408755459748,19.835010186699,NaN,1,,,,,
357,1,0,019.jpg,19.8467696435455,20.3644284505499,21.5644167982582,NaN,1,,,,,
358,1,0,028.jpg,21.5879465793732,22.1056153481813,22.7056027298968,NaN,1,,,,,
359,1,0,024.jpg,22.7173730541654,23.2350388042451,24.1291430161864,NaN,1,,,,,
360,1,0,053.jpg,24.1409082086166,24.6585667137488,24.9526787140094,NaN,1,,,,,
361,1,0,055.jpg,24.9644445101858,25.4821018078255,26.7762255811276,NaN,1,,,,,
362,1,0,054.jpg,26.7879983203793,27.3056459580885,27.9997675579061,NaN,1,,,,,
363,1,0,023.jpg,28.0115288259894,28.5292042360006,30.6233541514912,NaN,1,,,,,
364,1,0,050.jpg,30.6350982128224,31.1527370962185,32.5527424695556,NaN,1,,,,,
365,1,0,026.jpg,32.5645127938242,33.0821646577533,34.2939538188875,NaN,1,34.2587439734862,,,,
366,1,0,057.jpg,34.3057057289125,34.8233757052121,36.6233677357695,NaN,1,,,,,
367,1,0,022.jpg,36.635152851808,37.1527911314588,39.0469207007191,NaN,1,,,,,
368,1,0,052.jpg,39.0586819688024,39.576351945102,41.5763727743288,NaN,1,,,,,
369,1,0,060.jpg,41.5999040648085,42.1175734373628,42.6117577059831,NaN,1,,,,,
370,1,0,060.jpg,42.6234181485352,43.1410890304533,43.5410714614536,0.50595912098288,1,,,,,
371,1,0,058.jpg,43.55283725763,44.0705126676412,44.7646303431111,NaN,1,,,,,
372,1,0,058.jpg,44.776378026917,45.2940480032166,46.2940730586633,0.647151995695822,1,,,,,
373,1,0,046.jpg,46.3175874442632,46.8352217995662,46.9293376034257,NaN,1,,,,,
374,1,0,048.jpg,46.9411033996012,47.4587727721555,48.7528787349593,NaN,1,,,,,
375,1,0,049.jpg,48.7646499648463,49.2823024325216,49.4823001382874,NaN,1,,,,,
376,1,0,021.jpg,49.4940801224875,50.0117407407297,52.3058533447356,NaN,1,,,,,
377,1,0,017.jpg,52.3176300083342,52.8352864003564,54.8352975696516,NaN,1,53.529480449658,,,,
378,1,0,016.jpg,54.8470564227518,55.3647076829357,56.3647230784509,NaN,1,,,,,
379,1,0,017.jpg,56.3764737809843,56.894148285377,58.0941819140126,NaN,1,,,,,
380,1,0,018.jpg,-1.54137876801451,-1.02370335800333,0.0704006728137756,NaN,1,,,,59.6471957672593,
381,1,0,053.jpg,-0.0707629202333919,0.446925772183931,2.2469196139773,NaN,1,1.68231142833247,,,0.152840034860674,
382,1,0,059.jpg,2.25867333523911,2.77633938719191,4.07044655748723,NaN,1,,,,,
383,1,0,059.jpg,4.08221416490051,4.59988202809109,5.69399964318654,0.505957309746009,1,,,,,
384,1,0,059.jpg,5.7057642318714,6.22341368081743,6.42344097012301,0.564790516845278,1,,,,,
385,1,0,058.jpg,6.43517597526807,6.9528302541803,8.04695300111416,0.717840957081535,0,,,,,
386,1,0,030.jpg,8.0587169860537,8.57637186871125,9.87051194314699,NaN,1,,,,,
387,1,0,030.jpg,9.88226023069728,10.3999178302111,11.8940507804473,0.517737897691404,1,,,,,
388,1,0,020.jpg,11.9175724109955,12.4352451041514,13.6352355649688,NaN,1,,,,,
389,1,0,051.jpg,13.6470152472957,14.1646683187164,15.9646866122112,NaN,1,,,,,
390,1,0,026.jpg,15.976436107253,16.4941172528488,18.7882177819411,NaN,1,,,,,
391,1,0,029.jpg,18.7999878043374,19.317640573885,20.4117621133273,NaN,1,,,,,
392,1,0,054.jpg,20.4235420975274,20.9412006026596,21.7411875013777,NaN,1,,,,,
393,1,0,022.jpg,21.7529490713341,22.2706093877023,23.0706065500981,NaN,1,,,,,
394,1,0,049.jpg,23.0823729500198,23.6000287382958,25.0000489034019,NaN,1,,,,,
395,1,0,016.jpg,25.011850320574,25.5294756196927,26.1294551527135,NaN,1,,,,,
396,1,0,027.jpg,26.1412275900921,26.658876737165,27.3529977332373,NaN,1,,,,,
397,1,0,024.jpg,27.3647698687428,27.8824313926034,29.1765415816271,NaN,1,,,,,
398,1,0,052.jpg,29.188320962081,29.7059770522301,31.3059961305944,NaN,1,,,,,
399,1,0,028.jpg,31.3177640398799,31.8354095644791,32.0354051571358,NaN,1,,,,,
400,1,0,025.jpg,32.0471573690338,32.5648228172404,34.3648924291201,NaN,1,,,,,
401,1,0,050.jpg,34.3766029825647,34.8942457903077,36.2942662572868,NaN,1,,,,,
402,1,0,023.jpg,36.3060426190132,36.8236721443509,39.3178032833503,NaN,1,,,,,
403,1,0,048.jpg,39.3295666645436,39.8472360370979,41.4472412293107,NaN,1,,,,,
404,1,0,055.jpg,41.4707595392574,41.9884340436502,44.4825519002443,NaN,1,,,,,
405,1,0,021.jpg,44.5060886244355,45.0237510539137,45.917859492075,NaN,1,,,,,
406,1,0,047.jpg,45.9296283069798,46.4472949626779,47.541401408479,NaN,1,,,,,
407,1,0,056.jpg,47.5531699215107,48.0708226910583,48.3649449549957,NaN,1,47.5650051484417,,,,
408,1,0,057.jpg,48.3767847100198,48.8943798218534,51.4002601540215,NaN,1,,,,,
409,1,0,019.jpg,51.4120280633078,51.9296787197454,52.5297056468035,NaN,1,,,,,
410,1,0,046.jpg,52.55324297474,53.0708866881023,55.0709126491665,NaN,1,,,,,
411,1,0,060.jpg,55.0944312609863,55.6120819174239,57.1061913215781,NaN,1,,,,,
412,1,0,030.jpg,57.1179522877892,57.6356258865635,58.1297361963361,NaN,1,,,,,
413,1,0,021.jpg,58.1415068224778,58.6591635163722,60.2591750479151,NaN,1,,,,,
414,1,0,026.jpg,60.2709203167369,60.7885791237422,60.8827091156245,NaN,1,60.7180540793133,,,,
415,1,0,027.jpg,-0.282541515818593,0.235162270240835,2.7292659388113,NaN,1,1.07049395152444,,,61.1768784717269,
416,1,0,047.jpg,2.74102358441996,3.2586657884176,4.45867285224267,NaN,1,,,,,
417,1,0,020.jpg,4.47045827015427,3.2586657884176,4.98808477676357,NaN,1,,,,,
418,1,0,025.jpg,4.99986053474368,5.5175296054249,7.21163792283733,NaN,1,,,,,
419,1,0,025.jpg,7.22342032201959,7.74106222414503,7.94107713666381,NaN,0,,,,,
420,1,0,056.jpg,7.95282210361347,8.47049177804001,8.87047571840503,NaN,1,,,,,
421,1,0,058.jpg,8.8940067070107,9.41167426832817,11.1058112636611,NaN,1,,,,,
422,1,0,024.jpg,11.1175535137545,11.6352086982852,12.4352115962647,NaN,1,,,,,
423,1,0,048.jpg,12.4469924860832,12.9646615567644,15.0587855111899,NaN,1,,,,,
424,1,0,048.jpg,15.070529270648,15.5881814364502,17.788215366958,0.682453912317214,1,,,,,
425,1,0,052.jpg,17.7999733144406,18.3176176315483,19.3176348383004,NaN,1,,,,,
426,1,0,023.jpg,19.3293876539437,19.8470467628213,21.6470656600613,NaN,1,,,,,
427,1,0,019.jpg,21.6588178719594,22.1764857351491,23.0705932676919,NaN,1,,,,,
428,1,0,046.jpg,23.0823807987135,23.6000320588964,24.0000316966489,NaN,1,,,,,
429,1,0,049.jpg,24.0117830029285,24.5294354706029,26.8235673944719,NaN,1,,,,,
430,1,0,028.jpg,26.8471198160505,27.3647514544991,29.2589417002027,NaN,1,,,,,
431,1,0,017.jpg,29.2824071824007,29.8000726306072,30.6000700948753,NaN,1,,,,,
432,1,0,050.jpg,30.6118700026836,31.129503150496,32.1294953018023,NaN,1,,,,,
433,1,0,050.jpg,32.1412607961056,32.65892382933,33.6589485829036,0.588326939162471,1,,,,,
434,1,0,053.jpg,33.6824530066988,34.2001048706279,36.6001202057687,NaN,1,35.0237749018688,,,,
435,1,0,057.jpg,36.6118841907073,37.1295544688801,39.1295529595163,NaN,1,,,,,
436,1,0,051.jpg,39.1530794200298,39.6707433588726,39.7648531252744,NaN,1,,,,,
437,1,0,018.jpg,39.7884007168877,40.3060423171401,41.2001746032565,NaN,1,,,,,
438,1,0,054.jpg,41.2119355694667,41.7295807921928,43.0237253947216,NaN,1,,,,,
439,1,0,059.jpg,43.0472470252698,43.5649157940779,44.364892127247,NaN,1,,,,,
440,1,0,059.jpg,44.3766549046941,44.8943297109599,45.3884288514373,0.5883423346786,1,,,,,
441,1,0,022.jpg,45.4237217118725,45.9413787076401,47.7413915674233,NaN,1,,,,,
442,1,0,022.jpg,47.7531552504897,48.270871413336,49.7649367440536,0.423639602457115,1,,,,,
443,1,0,060.jpg,49.7767055589584,50.2943716109112,51.5884805924434,NaN,1,,,,,
444,1,0,055.jpg,51.6002485017298,52.1179042900058,52.4120187052495,NaN,1,,,,,
445,1,0,029.jpg,52.4238346123184,52.9414414971925,53.2473208029942,NaN,1,52.7650617194131,,,,
446,1,0,016.jpg,53.2590896178981,53.776741179955,54.8708923029371,NaN,1,,,,,
447,1,0,047.jpg,54.8826267043369,55.4003060386949,55.694418944574,NaN,1,,,,,
448,1,0,047.jpg,55.7061744770735,56.2238196997996,58.2238544151769,NaN,0,,,,,
449,1,0,046.jpg,-0.647278480420937,-0.129627522110241,1.27037664373529,NaN,1,0.458748622327221,0.611608882668406,,58.8827697920669,
450,1,0,049.jpg,1.28212704439557,1.79979853005989,3.19978911162707,NaN,1,,,,,
451,1,0,059.jpg,3.21155279469349,3.72922216724783,5.3292183032745,NaN,1,,,,,
452,1,0,060.jpg,5.34098440132402,5.85865467949679,7.152761547919,NaN,1,,,,,
453,1,0,017.jpg,7.16452704222229,7.68218675484513,8.57630334357327,NaN,1,,,,,
454,1,0,017.jpg,8.58806793225813,9.10572613551722,9.39983934326938,0.741274742630594,1,,,,,
455,1,0,027.jpg,9.41161540312169,9.9292814550754,10.2233765504561,NaN,1,,,,,
456,1,0,058.jpg,10.2351782695014,10.7527975311623,13.0469300587774,NaN,1,,,,,
457,1,0,026.jpg,13.0586976661907,13.5763794155318,14.3763442775316,NaN,1,,,,,
458,1,0,026.jpg,14.3881182242749,14.905772201314,16.7999029780658,0.600090924102005,1,,,,,
459,1,0,054.jpg,16.8116666611322,17.329339052415,19.2234526224147,NaN,1,,,,,
460,1,0,055.jpg,19.2352347197238,19.7528775274677,20.6469932105774,NaN,1,,,,,
461,1,0,016.jpg,20.6587596104991,21.176430190545,23.5764370732459,NaN,1,,,,,
462,1,0,056.jpg,23.5999550813194,24.1176525280489,25.3176568750177,NaN,1,,,,,
463,1,0,048.jpg,25.3411492238993,25.858823728292,26.752927336488,NaN,1,,,,,
464,1,0,051.jpg,26.7646913214267,27.282364920201,27.5764636380563,NaN,1,,,,,
465,1,0,028.jpg,27.5999955322814,28.1176498111936,28.9176499923169,NaN,1,,,,,
466,1,0,025.jpg,28.9411897352356,29.4588820501267,30.5529571011512,NaN,1,,,,,
467,1,0,050.jpg,30.5764905047399,31.0941490098721,31.1882808129913,NaN,1,,,,,
468,1,0,024.jpg,31.2000269874325,31.7176924356399,33.7176897187837,NaN,1,,,,,
469,1,0,029.jpg,33.7294772498053,34.2471309249713,35.5412359821567,NaN,1,,,,,
470,1,0,019.jpg,35.5530038914421,36.0706747733611,38.4706725998767,NaN,1,,,,,
471,1,0,020.jpg,38.4942582274689,39.0118575655215,40.2118622143635,NaN,1,,,,,
472,1,0,057.jpg,40.2236313311414,40.741286213799,43.0354166283032,NaN,1,40.9884409867254,,,,
473,1,0,021.jpg,43.0589458056729,43.5766387243093,44.9766277965118,NaN,1,,,,,
474,1,0,030.jpg,45.000138559637,45.5178040078445,47.5178067247007,NaN,1,,,,,
475,1,0,018.jpg,47.5295942557213,48.0472461196505,49.0472298185168,NaN,1,,,,,
476,1,0,053.jpg,49.070770467054,49.5884325946599,50.7884450921965,NaN,1,,,,,
477,1,0,052.jpg,50.800213001482,51.3178422249475,53.5178577412116,NaN,1,,,,,
478,1,0,052.jpg,53.5296205186596,54.0472914005777,55.1414035819626,0.611862455862138,1,54.7532527554195,,,,
479,1,0,023.jpg,55.1531856792726,55.6708227514318,56.2708388110677,NaN,1,,,,,
480,1,0,022.jpg,-2.60020442829318,-2.08256282804086,0.0115487495977504,NaN,1,,,,58.7415283158234,0.152785999620392
481,1,0,050.jpg,0.0233148476463612,0.540986937056914,1.340973835775,NaN,1,0.611642088682856,,,,
482,1,0,052.jpg,1.35275804619505,0.540986937056914,1.8704005520658,NaN,1,,,,,
483,1,0,056.jpg,1.88215366958138,2.39986319122545,3.59981531419089,NaN,1,,,,,
484,1,0,057.jpg,3.61157628040201,4.12923569115173,4.22334787253658,NaN,1,,,,,
485,1,0,022.jpg,4.23515110094559,4.75278696561327,6.75279511618101,NaN,1,,,,,
486,1,0,019.jpg,6.76458083596481,7.28220372010037,8.77633727408283,NaN,1,,,,,
487,1,0,021.jpg,8.78809944778459,9.30575312295059,11.105757832167,NaN,1,,,,,
488,1,0,024.jpg,11.1175242320887,11.6351809259832,12.9293059067768,NaN,1,,,,,
489,1,0,030.jpg,12.9410849853584,13.4587407736344,15.8587410151322,NaN,1,,,,,
490,1,0,030.jpg,15.8705816757747,16.3881779950998,18.8940625534888,0.952960059505131,1,,,,,
491,1,0,058.jpg,18.9175890140023,19.4352466135151,21.5293750960336,NaN,1,,,,,
492,1,0,060.jpg,21.5411587027074,22.0588141891112,22.8588315769875,NaN,1,,,,,
493,1,0,018.jpg,22.8705647708957,23.3882214647901,23.482333646175,NaN,1,,,,,
494,1,0,028.jpg,23.4940988386052,24.0117645886849,26.1058994105333,NaN,1,,,,,
495,1,0,047.jpg,26.1176652067097,26.6353071088342,27.8353365112498,NaN,1,,,,,
496,1,0,029.jpg,27.8471071373915,28.3647502470076,29.564766668891,NaN,1,,,,,
497,1,0,059.jpg,29.5883181848512,30.1059235603616,30.7059227151176,NaN,1,,,,,
498,1,0,055.jpg,30.7176918318946,31.2354073909946,31.4353730982393,NaN,1,31.200115738051,,,,
499,1,0,048.jpg,31.458878427653,31.9765478002073,34.1765651277092,NaN,1,,,,,
500,1,0,048.jpg,34.1883037553289,34.7059634679517,34.8000756493366,0.52950248637535,1,,,,,
501,1,0,025.jpg,34.8118565391551,34.7059634679517,35.329493007569,NaN,1,,,,,
502,1,0,049.jpg,35.3412720861497,35.8589118751652,36.3530309392509,NaN,1,,,,,
503,1,0,049.jpg,36.3647949241895,36.8824655042354,38.1765750895129,0.64714837322208,1,,,,,
504,1,0,020.jpg,38.1883571868229,38.7059969758384,39.1059935948624,NaN,1,,,,,
505,1,0,017.jpg,39.1177602966573,39.6354272542285,40.6354191036617,NaN,1,,,,,
506,1,0,023.jpg,40.6471975784971,41.1648397824947,42.6589645821641,NaN,1,,,,,
507,1,0,051.jpg,42.6825031175922,41.1648397824947,43.2001438122261,NaN,1,,,,,
508,1,0,054.jpg,43.2119090046563,43.7295675097876,45.6237203232577,NaN,1,,,,,
509,1,0,016.jpg,45.6472307845106,46.1648950252265,48.0590107083362,NaN,1,,,,,
510,1,0,046.jpg,48.0707780138764,48.5884404433546,49.0825685636255,NaN,1,,,,,
511,1,0,053.jpg,49.0943177567951,49.6119644888859,51.1060950241399,NaN,1,,,,,
512,1,0,027.jpg,51.1178641409169,51.6355229479213,53.7296441854915,NaN,1,52.4709228524689,,,,
513,1,0,026.jpg,53.7414090760494,54.2590829766959,55.2590790523491,NaN,1,,,,,
514,1,0,056.jpg,55.2708557159476,55.7885069761305,55.8826330436668,NaN,1,,,,,
515,1,0,021.jpg,55.8943695581766,55.7885069761305,56.4120286670532,NaN,1,,,,,
516,1,0,058.jpg,-0.482602614883035,0.0350679651628525,1.52945448859282,NaN,1,0.152800791389382,,,56.753271169664,0.152859656595865
517,1,0,022.jpg,1.54118073942573,2.05862521670679,2.36448097642551,NaN,1,,,,,
518,1,0,026.jpg,2.3762440557457,2.89391584328314,5.38803883171568,NaN,1,,,,,
519,1,0,057.jpg,5.3998052316374,5.91745498245655,6.61157537478266,NaN,1,,,,,
520,1,0,018.jpg,6.62333905784908,7.14101295849559,8.54100203069811,NaN,1,,,,,
521,1,0,028.jpg,8.5527675250014,9.07042693575204,10.4704356296897,NaN,1,,,,,
522,1,0,030.jpg,10.4821953884093,10.9998683834374,11.9998578178875,NaN,1,,,,,
523,1,0,023.jpg,12.0116190859708,12.5292787985945,12.8233917044736,NaN,1,,,,,
524,1,0,023.jpg,12.8351568969038,13.3528123833075,14.5529021602924,0.529501882630029,1,,,,,
525,1,0,020.jpg,14.5646066762802,15.0822525027525,16.9763702989712,NaN,1,,,,,
526,1,0,020.jpg,16.9881303595639,17.505826900674,19.7058022678502,0.706006937641178,1,,,,,
527,1,0,051.jpg,19.7175831576687,20.2352317009963,21.4469924860823,NaN,1,,,,,
528,1,0,059.jpg,21.4587573766403,21.9764137686616,22.0705298743933,NaN,1,,,,,
529,1,0,047.jpg,22.082294161205,22.5999593075394,22.8940873070615,NaN,1,,,,,
530,1,0,055.jpg,22.9058416320695,23.4234844398125,25.4234962128539,NaN,1,,,,,
531,1,0,055.jpg,25.4352620090303,25.9529187029248,26.9529229291447,NaN,0,,,,,
532,1,0,019.jpg,26.9764545214966,27.4941051779342,28.988250203085,NaN,1,,,,,
533,1,0,027.jpg,29.0000141880237,29.5176572976397,29.9176515016816,NaN,1,,,,,
534,1,0,050.jpg,29.9411879239988,30.4588548815709,31.7529747305252,NaN,1,,,,,
535,1,0,029.jpg,31.7647492810138,32.2823960131045,34.694165069508,NaN,1,33.1648331412916,,,,
536,1,0,016.jpg,34.7059287525735,35.223583333358,35.6236487793922,NaN,1,,,,,
537,1,0,053.jpg,35.6353635590567,36.1530139136212,38.3530176568447,NaN,1,,,,,
538,1,0,048.jpg,38.3647804342918,38.8824422600255,39.6589141693985,NaN,1,,,,,
539,1,0,024.jpg,39.7649307065967,40.2824494445995,40.4824456410015,NaN,1,,,,,
540,1,0,049.jpg,40.494211437177,41.0121168742999,41.9060103789925,NaN,1,,,,,
541,1,0,054.jpg,41.9177493084844,42.435453396417,43.9413171255783,NaN,1,,,,,
542,1,0,060.jpg,43.9765994204645,44.4942612461973,45.3060157523287,NaN,1,,,,,
543,1,0,060.jpg,45.3177924159272,45.8354406573826,48.329571796382,0.941259467865166,1,,,,,
544,1,0,046.jpg,48.3413605348942,48.8589918714697,51.1531237953386,NaN,1,49.4708878352185,,,,
545,1,0,025.jpg,51.1648929121156,51.682545379791,54.1767027817277,NaN,1,,,,,
546,1,0,052.jpg,54.188470389141,54.7061174231048,57.1061131365104,NaN,1,,,,,
547,1,0,017.jpg,57.1296498607007,57.6473011208836,59.5414312938901,NaN,1,,,,,
548,1,0,060.jpg,-2.08264554120251,-1.56498945105341,0.635021235245404,NaN,1,60.7180254013929,,,61.6356506401362,
549,1,0,049.jpg,0.646771937778794,1.16444493280687,2.6585724493325,NaN,1,,,,,
550,1,0,051.jpg,2.6703334155427,3.18799312816645,5.68210585292218,NaN,1,4.3057138794793,,,,
551,1,0,016.jpg,5.69387346033454,6.21152864486521,8.52919487794225,NaN,1,,,,,
552,1,0,025.jpg,8.54095554227933,9.05862793356209,11.1527404168201,NaN,1,,,,,
553,1,0,053.jpg,11.164505005504,11.6821783024061,13.6821933960482,NaN,1,,,,,
554,1,0,030.jpg,13.6939655315537,14.2116170936106,15.0116202934623,NaN,1,,,,,
555,1,0,057.jpg,15.0351853937009,15.5530573229371,15.976564101341,NaN,1,,,,,
556,1,0,026.jpg,16.0118687348177,16.5295184856368,18.1530594964215,NaN,1,,,,,
557,1,0,059.jpg,18.164833745037,16.5295184856368,18.6824671947224,NaN,1,,,,,
558,1,0,048.jpg,18.694224840332,19.2118927035217,21.5766037070589,NaN,1,,,,,
559,1,0,022.jpg,21.5883809744028,22.1648379712569,22.6707412457627,NaN,1,,,,,
560,1,0,019.jpg,22.6825094569213,23.2001507553005,25.1060406870265,NaN,1,,,,,
561,1,0,047.jpg,25.1177962195252,25.6472350107297,27.1766584064189,NaN,1,,,,,
562,1,0,058.jpg,27.3178292444154,27.8354844289452,28.1296254089993,NaN,1,,,,,
563,1,0,020.jpg,28.1411328020167,28.6590222398781,29.8590477179469,NaN,1,,,,,
564,1,0,050.jpg,29.8707908736587,30.3884424357148,31.1882014204321,NaN,1,,,,,
565,1,0,021.jpg,31.1999717447006,31.7176227030113,34.211771652509,NaN,1,,,,,
566,1,0,021.jpg,34.2235434861423,34.7411829732846,34.9411740378482,NaN,0,,,,,
567,1,0,054.jpg,34.9529395321515,35.4706116215611,37.3647215690862,0.0471298986030888,0,,,,,
568,1,0,018.jpg,37.3764921952279,37.9764985949323,38.8944039716807,NaN,1,,,,,
569,1,0,018.jpg,38.9061465236473,39.4238152924554,39.6238051495275,NaN,0,,,,,
570,1,0,052.jpg,39.6355700400854,40.1532674868149,41.9532350656709,0.0942036488577287,0,40.976880162214,,,,
571,1,0,055.jpg,41.9650008618464,42.4826741587476,44.070920195988,NaN,1,,,,,
572,1,0,024.jpg,44.0826983689503,42.4826741587476,44.6003131025191,NaN,1,,,,,
573,1,0,024.jpg,44.612120557148,45.1295140179182,46.682468402214,NaN,0,,,,,
574,1,0,028.jpg,46.6942266515689,47.2121354092924,47.7062279085676,NaN,1,,,,,
575,1,0,046.jpg,47.7179867616678,48.2357515260428,48.4944776890306,NaN,1,,,,,
576,1,0,046.jpg,48.506228391564,49.1534087633081,51.4239173254791,NaN,0,,,,,
577,1,0,056.jpg,51.4474622002363,52.0945006917409,52.6239597084268,NaN,1,,,,,
578,1,0,023.jpg,52.6357001472834,52.0945006917409,53.1533882359545,NaN,1,,,,,
579,1,0,027.jpg,53.1650888275954,53.682756690785,54.1769065459011,NaN,1,,,,,
580,1,0,017.jpg,54.1886463810124,54.8357150598022,55.6239572934437,NaN,1,,,,,
581,1,0,029.jpg,-1.65905695525635,-1.14143829734076,0.764451332511271,NaN,1,56.3887738921039,0.493943072214279,,57.3064299218777,
582,1,0,055.jpg,0.776205053773992,1.29384001282324,3.59977546697428,NaN,1,,,,,
583,1,0,021.jpg,3.61151922643239,4.12916776975999,6.12917501470838,NaN,1,,,,,
584,1,0,019.jpg,6.14095590452689,6.65861863587816,6.85862449221167,NaN,1,,,,,
585,1,0,049.jpg,6.87037006290666,7.38801196503209,8.90568858253482,NaN,1,,,,,
586,1,0,054.jpg,8.91742690828141,9.43511046885942,10.6233647170402,NaN,1,,,,,
587,1,0,026.jpg,10.6351066652614,9.43511046885942,11.1527706041043,NaN,1,,,,,
588,1,0,060.jpg,11.1645137598171,11.6821734724399,12.5762982117349,NaN,1,,,,,
589,1,0,046.jpg,12.5880721584781,13.1057300598641,14.5998307097061,NaN,1,,,,,
590,1,0,017.jpg,14.6116254856752,15.1290144183522,15.9409373695344,NaN,1,,,,,
591,1,0,023.jpg,15.952609585127,16.470201376359,18.0702086816818,NaN,1,,,,,
592,1,0,023.jpg,18.0819953070841,18.5996625665284,19.8234318535624,0.706026861250393,1,,,,,
593,1,0,030.jpg,19.8351882916804,20.3528591735985,22.046959038571,NaN,1,,,,,
594,1,0,058.jpg,22.0587360040427,22.5763872642256,23.5761379172518,NaN,1,,,,,
595,1,0,048.jpg,23.5879290707471,24.1055724822363,25.5055657806597,NaN,1,,,,,
596,1,0,057.jpg,25.5173566322819,26.0350000437711,28.2349992589016,NaN,1,,,,,
597,1,0,053.jpg,28.2467638475864,28.8585680419892,30.9646718204403,NaN,1,,,,,
598,1,0,051.jpg,30.9764442578198,31.4941081966626,32.8938609024244,NaN,1,31.3058986256628,,,,
599,1,0,059.jpg,32.9056315285661,33.5527406583178,34.3174039055702,NaN,1,,,,,
600,1,0,020.jpg,34.3291669848904,34.8468429986478,36.8468357536995,NaN,1,,,,,
601,1,0,027.jpg,36.8586093985696,37.3762688093193,39.376268205574,NaN,1,,,,,
602,1,0,028.jpg,39.3880346054957,39.9056922050086,41.5998364452898,NaN,1,,,,,
603,1,0,024.jpg,41.6115962040085,42.1292438417177,44.49398503254,NaN,1,43.6940542821712,43.8588647830002,,,
604,1,0,016.jpg,44.5175139080366,45.0353954972034,47.1295381677464,NaN,1,,,,,
605,1,0,052.jpg,47.1412795122214,47.6589340930059,48.9645869941705,NaN,1,,,,,
606,1,0,056.jpg,48.9763467528892,49.4940073711305,50.0940333925701,NaN,1,,,,,
607,1,0,029.jpg,50.1057699070798,50.6234259972289,53.0234446529712,NaN,1,,,,,
608,1,0,050.jpg,53.1179838771486,53.6352346593494,55.6352277162741,NaN,1,,,,,
609,1,0,025.jpg,55.6470022667627,56.1646505082181,56.7646505685925,NaN,1,,,,,
610,1,0,047.jpg,56.8708134599501,57.388182523192,58.1881920623737,NaN,1,,,,,
611,1,0,018.jpg,58.1999560473123,58.7176109299699,60.0117404388566,NaN,1,59.4824106237502,59.6353970669425,59.7883035138293,,
612,1,0,022.jpg,-0.0590381787651495,0.458633910645403,1.35273359449366,NaN,1,0.305755537932782,,,60.0941855364863,
613,1,0,022.jpg,1.36449908879695,1.88221706288005,2.17627200917195,NaN,0,,,,,
614,1,0,029.jpg,2.18803478661994,2.7056923861328,5.1998268457337,NaN,1,,,,,
615,1,0,056.jpg,5.21159052880012,5.72924752456765,5.8233600078247,NaN,1,,,,,
616,1,0,020.jpg,5.83512489838176,6.35278098853087,8.04690892767849,NaN,1,,,,,
617,1,0,026.jpg,8.058672610744,8.57634470015455,11.0704601417656,NaN,1,,,,,
618,1,0,021.jpg,11.082230164162,11.5998971217332,14.0940158839458,NaN,1,,,,,
619,1,0,021.jpg,14.1057786613928,14.6352035664468,16.8469818601588,0.611860342753062,1,,,,,
620,1,0,028.jpg,16.8587633537227,17.3764318206586,19.8705351873559,NaN,1,,,,,
621,1,0,054.jpg,19.8823018891508,20.3999555643168,22.4940882730552,NaN,1,,,,,
622,1,0,054.jpg,22.5058498430108,23.0235231399129,23.1176238501284,NaN,0,,,,,
623,1,0,047.jpg,23.1293863257033,23.6470553963845,23.9411613591883,NaN,1,,,,,
624,1,0,047.jpg,23.9529238347632,24.4705814342769,26.7647405267016,NaN,0,25.8706825013069,,,,
625,1,0,016.jpg,26.7764984741834,27.2941443006557,29.3882951217647,NaN,1,,,,,
626,1,0,048.jpg,29.4118218841513,29.9294746536989,30.72947030673,NaN,1,,,,,
627,1,0,030.jpg,30.7529792586183,31.2706489330458,32.5647545939764,NaN,1,,,,,
628,1,0,053.jpg,32.5883058080635,33.1059646150688,35.2000734758512,NaN,1,,,,,
629,1,0,058.jpg,35.2118682518212,35.7294947584305,38.0236263804272,NaN,1,,,,,
630,1,0,049.jpg,38.0471606896344,38.5648252322235,40.3648211871268,NaN,1,,,,,
631,1,0,046.jpg,40.3766129443684,40.8942421678339,42.6825179093612,NaN,1,42.6238757877754,,,,
632,1,0,052.jpg,42.7060401436556,40.8942421678339,43.2236898944748,NaN,1,,,,,
633,1,0,024.jpg,43.2354538794134,43.7533593165363,46.1531068904596,NaN,1,,,,,
634,1,0,050.jpg,46.1648708753983,46.7413598707744,48.7413918692964,NaN,1,,,,,
635,1,0,051.jpg,48.7649195373015,49.2825647600275,49.5766643835022,NaN,1,,,,,
636,1,0,018.jpg,49.5884268590762,50.1060865717,52.5063639324735,NaN,1,,,,,
637,1,0,060.jpg,52.5298909967332,53.047315550406,53.8473048641072,NaN,1,,,,,
638,1,0,060.jpg,53.8590754902489,54.7062777175879,55.7767161245083,NaN,0,53.9414807406629,54.0944315628594,,,
639,1,0,055.jpg,-1.18847370974254,-0.670822751431842,1.32918660662654,NaN,1,0.611619146346129,0.764574194761735,,56.8360510442835,0.151834496399715
640,1,0,023.jpg,1.35275653683038,1.87064325783649,4.07039161662851,NaN,1,,,,,
641,1,0,022.jpg,4.08217160082859,4.59981169171624,6.4939385441221,NaN,1,,,,,
642,1,0,027.jpg,6.50570766089913,7.0233752222166,8.42337727495124,NaN,1,,,,,
643,1,0,025.jpg,8.44690011299099,8.96455469377543,10.3645648970778,NaN,1,,,,,
644,1,0,019.jpg,10.3763424662957,8.96455469377543,10.8939789347087,NaN,1,,,,,
645,1,0,017.jpg,10.9057489571051,11.4234098772195,13.7175342542669,NaN,1,,,,,
646,1,0,059.jpg,13.7410658466188,14.2587355210462,16.4587299062114,NaN,1,,,,,
647,1,0,057.jpg,16.4705168334867,16.9881487738076,19.388163505203,NaN,1,,,,,
648,1,0,058.jpg,19.3999286976332,19.9175847877823,20.011713572173,NaN,1,,,,,
649,1,0,058.jpg,20.0234642747064,19.9175847877823,20.5411134217802,NaN,0,,,,,
650,1,0,022.jpg,20.5528783123373,21.0705525148578,23.5646709751973,NaN,1,,,,,
651,1,0,029.jpg,23.5764385826105,24.0941070495464,26.3882416902707,NaN,1,,,,,
652,1,0,030.jpg,26.3999863553472,26.9176433511147,28.0117663999217,NaN,1,,,,,
653,1,0,030.jpg,28.0235309886066,28.5411885881194,30.941201508278,0.741263573335345,1,,,,,
654,1,0,021.jpg,30.9647327987568,31.4824036806758,32.4824136424795,NaN,1,,,,,
655,1,0,021.jpg,32.4941764199266,33.0118282838557,34.505937989883,0.705957732368006,1,34.1178079925667,,,,
656,1,0,059.jpg,34.51771767221,35.0353722529953,37.4353737019846,NaN,1,,,,,
657,1,0,049.jpg,37.4471373850511,37.9648004182754,38.8589324025188,NaN,1,,,,,
658,1,0,051.jpg,38.8706924631106,39.3883506663697,41.5883664845069,NaN,1,,,,,
659,1,0,051.jpg,41.600129261954,42.117787465213,43.6118950581304,NaN,0,,,,,
660,1,0,047.jpg,43.6354287635922,44.153105381095,45.6472069365554,NaN,1,,,,,
661,1,0,048.jpg,45.658975147714,46.1766273135163,48.2707585128901,NaN,1,46.9178887737417,,,,
662,1,0,056.jpg,48.2942919164789,48.8119516291026,50.4119528969686,NaN,1,,,,,
663,1,0,055.jpg,50.4237159762888,50.9413738776748,52.1413782246436,NaN,1,,,,,
664,1,0,055.jpg,52.153169378139,52.6708133933744,54.9649320348371,0.576597367728937,1,54.2591442568846,,,,
665,1,0,026.jpg,-2.49432584698752,-1.9766914916836,0.317447073388394,NaN,1,0.152865995925822,0.305739236799127,,57.3179771621117,0.15279777266187
666,1,0,060.jpg,0.329192644083378,0.846866846603007,2.44687837814581,NaN,1,,,,,
667,1,0,023.jpg,2.47040997049771,2.98804402392943,4.58804680115918,NaN,1,,,,,
668,1,0,018.jpg,4.63511149522765,5.15277543407046,6.24690814280893,NaN,1,,,,,
669,1,0,046.jpg,6.25866246781698,6.77632489729513,8.17631396949855,NaN,1,,,,,
670,1,0,046.jpg,8.18807735069186,8.70574793073683,9.99985842163369,0.835411375715921,1,,,,,
671,1,0,025.jpg,10.0233987682986,10.5410605940315,11.7410504511035,NaN,1,,,,,
672,1,0,057.jpg,11.7528129266784,12.270487129198,12.7645862696754,NaN,1,,,,,
673,1,0,057.jpg,12.7763508583603,13.2940223440246,15.1999165019697,0.682448780478808,1,,,,,
674,1,0,052.jpg,15.2116892412214,15.729337784549,18.1293513084529,NaN,1,,,,,
675,1,0,016.jpg,18.1411044259694,18.6587596105001,21.1528910513716,NaN,1,,,,,
676,1,0,028.jpg,21.1881905530099,21.7058439263037,23.3058548541003,NaN,1,,,,,
677,1,0,024.jpg,23.32937980525,23.8470540077697,26.2470545511405,NaN,1,,,,,
678,1,0,027.jpg,26.2588215548085,26.7764731168645,27.576518578916,NaN,1,,,,,
679,1,0,020.jpg,27.6000329645158,28.1176751685134,29.4117832444272,NaN,1,,,,,
680,1,0,050.jpg,29.4235544743142,29.9412172056655,31.7412152736797,NaN,1,,,,,
681,1,0,054.jpg,31.7647770533167,32.2824011449438,33.8824371281871,NaN,1,,,,,
682,1,0,019.jpg,33.9059551362607,34.4236124339013,34.8235930536648,NaN,1,,,,,
683,1,0,053.jpg,34.8471433621335,35.3648100178316,37.4589125392849,NaN,1,,,,,
684,1,0,053.jpg,37.4706765242245,37.9883350293558,39.9883446892873,NaN,0,39.9766673418562,,,,
685,1,0,017.jpg,40.0118765835123,40.5295323717883,42.5295501822857,NaN,1,,,,,
686,1,0,017.jpg,42.5413220159189,43.0589772004496,44.658970619621,0.800086818631826,1,,,,,
687,1,0,050.jpg,44.6707370195427,45.1884066939701,45.6825076456844,NaN,1,,,,,
688,1,0,054.jpg,45.6942734418608,46.2119283245183,46.906045698116,NaN,1,,,,,
689,1,0,047.jpg,46.9178157205115,47.4354648675853,47.9295845354163,NaN,1,,,,,
690,1,0,027.jpg,47.9413687458364,48.4590169872909,48.7531211388578,NaN,1,,,,,
691,1,0,052.jpg,48.7649264803767,49.2825578169522,50.8825518398698,NaN,1,,,,,
692,1,0,049.jpg,50.9060767910196,51.4237512954123,53.7296327143231,NaN,1,,,,,
693,1,0,056.jpg,53.7531661179119,54.2708255286625,56.7649539508066,NaN,1,54.6709694616375,,,,
694,1,0,021.jpg,-0.376679960140791,0.140958319509991,0.235075632733242,NaN,1,,,,57.2003605569316,
695,1,0,021.jpg,0.24688187987158,0.799784040164013,2.07039463535784,NaN,0,0.305787536455682,,,,
696,1,0,057.jpg,2.082144734145,2.59980354115032,4.29392514096708,NaN,1,,,,,
697,1,0,057.jpg,4.30568942777882,4.82334853665634,6.42336278505536,0.54128579117787,1,,,,,
698,1,0,024.jpg,6.43511892130027,6.95277682268625,8.15280501761026,NaN,1,,,,,
699,1,0,029.jpg,8.17641935210577,8.69398454954444,9.30597077327457,NaN,1,,,,,
700,1,0,020.jpg,9.31774834249154,9.83538028281328,11.0352074304192,NaN,1,,,,,
701,1,0,053.jpg,11.0469523973688,11.5645939976212,12.6704867669514,NaN,1,,,,,
702,1,0,018.jpg,12.6940165480664,11.5645939976212,13.2116469790226,NaN,1,,,,,
703,1,0,055.jpg,13.2234927715044,13.7410842608633,14.788401320634,NaN,1,,,,,
704,1,0,026.jpg,14.7999268260219,15.3175654075449,15.6234317328135,NaN,1,,,,,
705,1,0,051.jpg,15.6469784188084,16.1648521592815,17.4940324265781,NaN,1,,,,,
706,1,0,051.jpg,17.505820561345,18.0234914432631,19.0117374201282,0.588335693475528,1,,,,,
707,1,0,028.jpg,19.0234866132978,19.5881763046118,21.141124953323,NaN,1,,,,,
708,1,0,019.jpg,21.1528910513725,21.6705631407822,22.164665299988,NaN,1,,,,,
709,1,0,019.jpg,22.1764824145484,22.6940841675842,23.7999914268112,1.00004890340188,1,,,,,
710,1,0,058.jpg,23.8117448462008,24.3293933895284,25.5294318481292,NaN,1,,,,,
711,1,0,058.jpg,25.5411837581541,26.0588217359318,26.3529325287018,0.694203407359964,1,,,,,
712,1,0,048.jpg,26.3764659322906,26.8941328898627,28.9882520143228,NaN,1,27.4707284463548,,,,
713,1,0,048.jpg,29.0000135842783,29.5176832587058,29.7176857944378,NaN,0,,,,,
714,1,0,060.jpg,29.7294479681395,30.2473497827878,31.2824563876748,NaN,1,,,,,
715,1,0,059.jpg,31.2941542624603,31.8118251443784,33.3059327372957,NaN,1,,,,,
716,1,0,046.jpg,33.3177009484543,33.835349793655,34.3414900383468,NaN,1,,,,,
717,1,0,025.jpg,34.3647650387775,34.8827163605729,35.2826568312466,NaN,1,,,,,
718,1,0,030.jpg,35.306185404871,35.8238647392291,36.423607603936,NaN,1,,,,,
719,1,0,023.jpg,36.4471518749478,37.035441985623,37.7883213243285,NaN,1,,,,,
720,1,0,017.jpg,37.8000844036487,38.3177595117877,39.6121096897259,NaN,1,,,,,
721,1,0,017.jpg,39.6238655240986,40.1415406322367,42.4356948946961,0.706004522658986,1,,,,,
722,1,0,017.jpg,42.4474618983641,43.0707810326048,44.7886473470062,0.623427808466658,1,44.7652697098065,,,,
723,1,0,022.jpg,44.800405294488,45.3180490078503,47.8592717076017,NaN,1,44.9181595536875,,,,
724,1,0,016.jpg,47.870776685636,48.3886730665727,50.5534023636046,NaN,1,,,,,
725,1,0,051.jpg,50.5651675560348,51.0943425103687,51.6828309515067,NaN,1,,,,,
726,1,0,053.jpg,51.694564447288,52.2119793410302,52.9063674945737,NaN,1,,,,,
727,1,0,025.jpg,52.9181018959735,53.4355327889762,54.2475432832844,NaN,1,54.0948282237832,,,,
728,1,0,050.jpg,54.259311494443,54.7767194451098,54.8828500902455,NaN,1,,,,,
729,1,0,050.jpg,54.8946222257509,55.4120039134796,56.1063597666289,NaN,0,,,,,
730,1,0,046.jpg,-2.37678048379985,-1.85913677043754,0.293852389610038,NaN,1,57.6006134660047,,,58.4947418277743,
731,1,0,046.jpg,0.30565471240061,0.823241673667326,2.61150473653561,NaN,0,0.411540538655572,,,,
732,1,0,058.jpg,2.62330343685244,3.14090639737969,4.34092402675378,NaN,1,,,,,
733,1,0,056.jpg,4.35269314353172,3.14090639737969,4.87034319622398,NaN,1,,,,,
734,1,0,024.jpg,4.88210899239948,5.39978077993692,7.59976912764432,NaN,1,,,,,
735,1,0,016.jpg,7.61153492382073,8.12918859898673,10.623334529756,NaN,1,,,,,
736,1,0,020.jpg,10.6350755723579,11.2821508923507,11.5527418658094,NaN,1,,,,,
737,1,0,052.jpg,11.5645287930847,12.0822337866357,13.1057113437473,NaN,1,,,,,
738,1,0,052.jpg,13.1174493676217,13.634881468116,14.435113789461,NaN,0,,,,,
739,1,0,017.jpg,14.446887132458,14.9645785417306,15.1880746338356,NaN,1,,,,,
740,1,0,028.jpg,15.1998183932938,15.7175070857102,17.2116385265826,NaN,1,,,,,
741,1,0,023.jpg,17.2233683998893,17.741049243612,20.141045862636,NaN,1,,,,,
742,1,0,026.jpg,20.1528155831593,20.6704825407305,20.9646029934311,NaN,1,,,,,
743,1,0,057.jpg,20.9763395079408,21.7290579484179,21.9999203055677,NaN,1,,,,,
744,1,0,055.jpg,22.0116830830148,22.5293177401918,24.3290724986891,NaN,1,,,,,
745,1,0,022.jpg,24.3408361817546,24.85849287565,26.2585009658424,NaN,1,,,,,
746,1,0,047.jpg,26.2702694788741,26.787920739057,29.2820558024032,NaN,1,,,,,
747,1,0,060.jpg,29.2938382015864,29.8114734625087,30.4114771453569,NaN,1,,,,,
748,1,0,049.jpg,30.4938404354452,31.0115082986358,33.5176563920213,NaN,1,,,,,
749,1,0,054.jpg,33.5998663111495,34.1176609804888,36.2232893092032,NaN,1,,,,,
750,1,0,030.jpg,36.2350641615649,36.752711799274,36.846821867548,NaN,1,,,,,
751,1,0,019.jpg,36.8585897768344,37.3762494894572,38.7762524478112,NaN,1,,,,,
752,1,0,027.jpg,38.7880203570976,39.3056842959404,39.3998097597305,NaN,1,,,,,
753,1,0,048.jpg,39.411556537917,39.9292111187015,41.4233350127524,NaN,1,,,,,
754,1,0,021.jpg,41.4351023182926,41.9527813507784,43.0468914190524,NaN,1,,,,,
755,1,0,059.jpg,43.0586412159682,43.5762988154811,44.870421985037,NaN,1,,,,,
756,1,0,018.jpg,44.8939541811351,43.5762988154811,45.4116021207174,NaN,1,,,,,
757,1,0,029.jpg,45.4233962929411,45.9410366857019,46.0351376977906,NaN,1,,,,,
758,1,0,057.jpg,46.0469007771108,46.5645985257133,47.3645591614941,NaN,1,,,,,
759,1,0,053.jpg,47.3763246557965,47.8939780290902,50.2939957792132,NaN,1,,,,,
760,1,0,054.jpg,50.3057703297027,50.8234158543019,52.0234214087623,NaN,1,,,,,
761,1,0,060.jpg,52.0351844880825,52.5528448044515,54.9528589321008,NaN,1,,,,,
762,1,0,026.jpg,54.9646374069362,55.4822777996969,56.1764483029156,NaN,1,,,,,
763,1,0,026.jpg,56.1881748556216,56.7058297382791,57.3999383575638,NaN,0,,,,,
764,1,0,052.jpg,57.4117008331386,57.9293744319129,59.6234836549438,NaN,1,,,,,
765,1,0,027.jpg,59.6352494511193,60.1529257667489,61.0470393367486,NaN,1,60.8706390316156,,,,
766,1,0,020.jpg,-0.729624261883146,-0.211976624173985,1.98803285463327,NaN,1,0.611659597308062,,,61.635349371033,0.152845468572195
767,1,0,051.jpg,2.01156444698609,2.52921932964364,3.42335252137855,NaN,1,,,,,
768,1,0,016.jpg,3.43511711006249,3.95277803017689,5.95277380395783,NaN,1,,,,,
769,1,0,019.jpg,5.9645341664218,3.95277803017689,6.48220353897614,NaN,1,,,,,
770,1,0,058.jpg,6.49395393963732,7.01162361406386,7.30572565252078,NaN,1,,,,,
771,1,0,023.jpg,7.31750744795772,7.84692450431794,8.54102919925572,NaN,1,,,,,
772,1,0,018.jpg,8.55279318419434,9.070463160494,11.0704912346691,NaN,1,,,,,
773,1,0,025.jpg,11.0822582383371,11.5998814243449,12.399887944799,NaN,1,,,,,
774,1,0,056.jpg,12.4116501185008,12.9293231135289,14.1293105556188,NaN,1,,,,,
775,1,0,024.jpg,14.1410784649042,14.6587291213418,15.5528583887299,NaN,1,,,,,
776,1,0,059.jpg,15.5646178455763,16.0822715207423,17.1763948714224,NaN,1,,,,,
777,1,0,017.jpg,17.1881591582342,17.7058354738638,17.7999564095608,NaN,1,,,,,
778,1,0,030.jpg,17.8117065083488,18.3293574666595,20.7293731036725,NaN,1,,,,,
779,1,0,029.jpg,20.7411307492821,21.2587898581596,22.4587929976369,NaN,1,,,,,
780,1,0,048.jpg,22.4705554732118,22.9999782651548,25.08234336648,NaN,1,,,,,
781,1,0,047.jpg,25.094108257038,25.6117631396955,27.8353093426931,NaN,1,,,,,
782,1,0,028.jpg,27.8588406331728,28.376496723321,29.6706340809014,NaN,1,,,,,
783,1,0,028.jpg,29.6824101407547,30.2000502316423,32.6000921315936,NaN,0,31.3413378944315,31.4942461525552,,,
784,1,0,049.jpg,32.6235935366612,33.1412369481504,34.4353649476725,NaN,1,,,,,
785,1,0,022.jpg,34.4471337625764,34.9647817021587,35.458927632928,NaN,1,,,,,
786,1,0,021.jpg,35.470694636595,35.9883422743042,38.3883379877097,NaN,1,,,,,
787,1,0,021.jpg,38.4001007651577,39.2471958276346,40.8236763705709,1.00009961803971,1,,,,,
788,1,0,055.jpg,40.8471961898822,41.364851374412,43.3648507706666,NaN,1,,,,,
789,1,0,046.jpg,43.8474714979202,44.4827601925108,46.1648741959998,NaN,1,45.6475471472568,45.8002616030117,,,
790,1,0,050.jpg,46.1766405959215,46.6942915542322,49.0943349635472,NaN,1,,,,,
791,1,0,019.jpg,49.1060757042769,49.6237299831892,51.3178588279552,NaN,1,,,,,
792,1,0,057.jpg,51.3296252278769,51.847302449125,53.7414099816679,NaN,1,,,,,
793,1,0,048.jpg,53.7531712497512,54.270839414814,56.3767397309648,NaN,1,,,,,
794,1,0,028.jpg,56.3884928484813,56.9063783619958,57.7063912217791,NaN,1,57.6947510047085,,,,
795,1,0,030.jpg,-0.588144909835137,-0.0707206580345883,0.835151463192233,NaN,1,0.152865090306477,0.305810780663705,,58.3062533262619,
796,1,0,030.jpg,0.976481690053333,1.49420992781234,3.90581084103815,NaN,0,,,,,
797,1,0,030.jpg,3.91757361848613,4.43517567339495,6.92932703787574,0.58832452418028,1,,,,,
798,1,0,058.jpg,6.94110007899963,7.45874892420034,7.95284142347464,NaN,1,,,,,
799,1,0,022.jpg,7.96460661590572,8.48228112029847,10.4828066809287,NaN,1,,,,,
800,1,0,024.jpg,10.4943696185501,11.0119330337338,13.3060785418811,NaN,1,,,,,
801,1,0,053.jpg,13.3413741191725,13.859024473737,15.4588663527384,NaN,1,,,,,
802,1,0,016.jpg,15.4823282124626,16.0472144230016,16.3999923928041,NaN,1,,,,,
803,1,0,049.jpg,16.4117618114542,16.9294079397987,19.3294302180157,NaN,1,,,,,
804,1,0,025.jpg,19.376477403458,19.8941513041054,22.2941385650711,NaN,1,,,,,
805,1,0,060.jpg,22.3176740817707,22.8353380206136,23.8353289644274,NaN,1,,,,,
806,1,0,054.jpg,23.8588777635323,24.3765619278565,25.0706454916944,NaN,1,,,,,
807,1,0,026.jpg,25.0941900645794,25.6118482678385,26.3059813388236,NaN,1,,,,,
808,1,0,021.jpg,26.3177196645702,26.8471617763762,27.5652237043842,NaN,1,,,,,
809,1,0,029.jpg,27.6122364763223,28.1297247251669,28.92975237672,NaN,1,,,,,
810,1,0,046.jpg,28.941481042536,29.458940311587,30.6236680992542,NaN,1,,,,,
811,1,0,023.jpg,30.6472060309361,31.1648222738686,31.7648425597245,NaN,1,,,,,
812,1,0,051.jpg,31.7883575490696,32.3059879800267,34.1060210652904,NaN,1,,,,,
813,1,0,056.jpg,34.1177968232705,34.6354390272691,35.8354418648732,NaN,1,34.800217227702,,,,
814,1,0,055.jpg,35.8471961898813,36.3648709961471,38.2589791324353,NaN,1,,,,,
815,1,0,017.jpg,38.2825128378972,38.8001794935963,40.7296840327072,NaN,1,,,,,
816,1,0,027.jpg,40.7648990099469,38.8001794935963,41.2825457420377,NaN,1,,,,,
817,1,0,018.jpg,41.2943064063757,41.8120165317641,44.1060938166474,NaN,1,,,,,
818,1,0,050.jpg,44.1178517641292,44.6355057411683,46.6355706438308,NaN,1,,,,,
819,1,0,020.jpg,46.6472968946637,47.1649400042797,49.6591173298257,NaN,1,,,,,
820,1,0,059.jpg,49.6708822203827,50.1884993689346,51.9885532834251,NaN,1,50.6592257021784,50.8121327528115,,,
821,1,0,047.jpg,52.0002976466294,52.5179796978427,54.2120702047569,NaN,1,,,,,
822,1,0,052.jpg,54.2356087401849,54.7532527554195,56.3533451888861,NaN,1,54.9415492657999,55.0945124647824,,,
823,1,0,059.jpg,56.365022234444,56.8826967388368,56.9768188820253,NaN,1,,,,,
824,1,0,060.jpg,-0.400202496307429,0.117437594580224,2.61156933732582,NaN,1,0.305758254788088,0.458695190833168,,57.3886990276369,
825,1,0,016.jpg,2.62336049082114,3.14100722291187,5.63514470124119,NaN,1,,,,,
826,1,0,049.jpg,5.64692891166033,6.16454575833905,7.65868474603303,NaN,1,,,,,
827,1,0,049.jpg,7.67047831451055,8.18813681964275,9.38811007370805,0.623591121678146,1,,,,,
828,1,0,050.jpg,9.3998846241966,9.91752592257581,10.5175504346516,NaN,1,,,,,
829,1,0,046.jpg,10.529309589625,11.0469348887427,11.9410750235538,NaN,1,,,,,
830,1,0,028.jpg,11.952838102874,12.4704950986416,12.6704692583253,NaN,1,,,,,
831,1,0,022.jpg,12.6940328491992,13.2116838075099,13.9057773331524,NaN,1,,,,,
832,1,0,058.jpg,13.917543431201,14.4352025400785,15.0352053173092,NaN,1,,,,,
833,1,0,030.jpg,15.058736607788,15.5763833398787,16.8705095281639,NaN,1,,,,,
834,1,0,057.jpg,16.8822762299578,17.3999567718074,18.3999655261205,NaN,1,,,,,
835,1,0,057.jpg,18.4117098893239,18.9411329831401,21.3293864464522,0.705997579583709,1,,,,,
836,1,0,024.jpg,21.3411498276455,21.858783277331,23.0588120760003,NaN,1,,,,,
