Trial,nBack,Valence,Image,imagePresentationTime,NoisePresentationTime,x,RT,Accuracy,Clock,dataOneMinPress
1,1,0,024.jpg,0.0115595589995792,0.544221562999155,2.63938449899797,NaN,1,,
2,1,0,057.jpg,2.65576666199922,3.18791619900003,3.68680986399704,NaN,1,,
3,1,0,060.jpg,3.70347308099736,4.23553442999764,5.83181118900029,NaN,1,,
4,1,0,016.jpg,5.84850286700021,6.38068586000009,7.97692694099896,NaN,1,,
5,1,0,027.jpg,7.99320250199889,8.52540982599749,8.92441128399878,NaN,1,,
6,1,0,019.jpg,8.94104237699867,9.47320969499924,9.97229471500032,NaN,1,,
7,1,0,052.jpg,9.98863066599733,10.5202797329985,12.017294715999,NaN,1,,
8,1,0,026.jpg,12.0340232130002,12.5661326299996,13.8629633019991,NaN,1,,
9,1,0,021.jpg,13.8796987709975,14.4114430859991,14.7109191359996,NaN,1,,
10,1,0,021.jpg,14.7275115589982,15.2597674589997,17.5540020259978,NaN,0,,
11,1,0,047.jpg,17.5702639349984,18.1030677849994,19.4997523120001,NaN,1,,
12,1,0,049.jpg,19.5160849169988,20.0484834620001,22.1434024230002,NaN,1,,
13,1,0,022.jpg,22.1601642690002,22.6922454429987,24.886880525999,NaN,1,,
14,1,0,055.jpg,24.9037019999996,25.4354309299997,27.430929995,NaN,1,,
15,1,0,020.jpg,27.4473808319999,27.9795576889992,29.2765532189987,NaN,1,,
16,1,0,059.jpg,29.2931330059982,29.8255462929992,31.920340335997,NaN,1,,
17,1,0,030.jpg,31.9368634469974,32.4686331800003,32.7682720239973,NaN,1,,
18,1,0,046.jpg,32.7848550909985,33.3170416239991,35.4120842329976,NaN,1,,
19,1,0,046.jpg,35.4285102709982,35.9607348479985,36.9583522309986,NaN,0,,
20,1,0,053.jpg,36.9750239339992,37.5070945259977,39.8016274319998,NaN,1,,
21,1,0,048.jpg,39.81846391,40.3503797439989,42.8447354349992,NaN,1,,
22,1,0,048.jpg,42.8613118559988,43.3933457040002,45.2890080260004,NaN,0,,
23,1,0,028.jpg,45.3049841110005,45.8372572589979,46.9348116090005,NaN,1,,
24,1,0,058.jpg,46.951518935999,47.4835985499994,48.7805219189977,NaN,1,,
25,1,0,051.jpg,48.7969840439982,49.3289705789975,51.2246729830003,NaN,1,,
26,1,0,050.jpg,51.2405021669983,51.7733396219992,53.5691760869995,NaN,1,,
27,1,0,050.jpg,53.5858314139987,54.1180395640004,55.6141254579998,NaN,0,,
28,1,0,054.jpg,55.6312005619984,56.1633592679973,56.2627681949998,NaN,1,,
29,1,0,029.jpg,56.2796246759972,56.8116672119977,58.9068848999996,NaN,1,,
30,1,0,017.jpg,58.9230682689995,56.8116672119977,59.4553763749973,NaN,1,,
31,1,0,017.jpg,59.4720637199971,60.0040794419983,61.9993277489993,NaN,0,,
32,1,0,025.jpg,62.0161406749976,62.5480982970003,63.8451898459971,NaN,1,,
33,1,0,056.jpg,63.8617055049981,64.393751757998,66.4888992429987,NaN,1,,
34,1,0,023.jpg,66.5053050280003,67.0374587949991,68.1350298249999,NaN,1,,
35,1,0,018.jpg,68.1515421059994,68.6825770639989,69.2821151349999,NaN,1,,
36,1,0,018.jpg,69.2984017509989,69.8309211470005,71.5269149339983,NaN,0,,
37,1,0,047.jpg,71.5436661659987,72.0756429539979,72.7739866970005,NaN,1,,
38,1,0,022.jpg,72.7905854989986,73.3225622959981,75.0186624540002,NaN,1,,
39,1,0,060.jpg,75.0353738599988,75.567598065998,76.166020315999,NaN,1,,
40,1,0,054.jpg,76.1818597499987,76.7147158039988,77.9120287749975,NaN,1,,
41,1,0,054.jpg,77.9286299140003,78.4605935340005,80.2560689299971,NaN,0,,
42,1,0,021.jpg,80.2726294059976,80.8052514449992,82.9998372079972,NaN,1,,
43,1,0,016.jpg,83.0165915189973,83.5485838789973,85.4442523929974,NaN,1,,
44,1,0,024.jpg,85.4607416069994,85.9927038200003,86.4916423159993,NaN,1,,
45,1,0,051.jpg,86.5084027789999,87.040262483999,88.9358752459993,NaN,1,,
46,1,0,051.jpg,88.952480355998,89.4845766340004,90.6818242849986,NaN,0,,
47,1,0,025.jpg,90.6983645389992,91.2304223059982,92.1282482919996,NaN,1,,
48,1,0,020.jpg,92.1450155729981,92.6772373549975,92.8767148749976,NaN,1,,
49,1,0,058.jpg,92.8934510219988,93.4252109669978,95.7199786659985,NaN,1,,
50,1,0,026.jpg,95.7364184819999,96.2684641519991,98.1632613439979,NaN,1,,
51,1,0,057.jpg,98.179802718998,98.6962202399991,100.608370226,NaN,1,,
52,1,0,055.jpg,100.625110289999,101.156999020997,103.551433683999,NaN,1,,
53,1,0,053.jpg,103.568182301999,104.099644108999,105.496951644,NaN,1,,
54,1,0,053.jpg,105.513550358999,106.045258678998,107.641942595998,NaN,0,,
55,1,0,028.jpg,107.658421410997,108.190502181998,110.485349705999,NaN,1,,
56,1,0,046.jpg,110.501714863,111.033489270998,113.228616335,NaN,1,,
57,1,0,046.jpg,113.245322356001,113.777545596,114.775163213999,NaN,0,,
58,1,0,019.jpg,114.791523169999,115.323757443999,117.318937804997,NaN,1,,
59,1,0,023.jpg,117.335478517998,117.867729034999,118.965490454997,NaN,1,,
60,1,0,049.jpg,118.98114027,119.513715973,121.209694238998,NaN,1,,
61,1,0,056.jpg,121.225760986999,121.758282624,122.357020144998,NaN,1,,
62,1,0,030.jpg,122.373807101998,122.905820149997,123.105423779998,NaN,1,,
63,1,0,017.jpg,123.121785578998,123.653088465999,125.449981137997,NaN,1,,
64,1,0,050.jpg,125.466151558998,125.998489088,126.09832918,NaN,1,,
65,1,0,050.jpg,126.115010901998,126.647203746998,126.946262247999,NaN,0,,
66,1,0,029.jpg,126.962866331,126.647203746998,127.494936636998,NaN,1,,
67,1,0,029.jpg,127.511631678,128.043917961997,128.841803545998,NaN,0,,
68,1,0,059.jpg,128.85855184,129.390635554999,129.589391833997,NaN,1,,
69,1,0,059.jpg,129.606795641997,130.138767019998,131.036659478999,NaN,0,,
70,1,0,027.jpg,131.053453185999,131.585368294,133.381362402997,NaN,1,,
71,1,0,052.jpg,133.43029118,133.963031482999,134.162714299,NaN,1,,
72,1,0,048.jpg,134.179005284997,134.711548430998,136.906149527,NaN,1,,
73,1,0,024.jpg,136.922778185999,137.454957488997,137.654371867,NaN,1,,
74,1,0,016.jpg,137.671137744997,138.203086743,139.50012148,NaN,1,,
75,1,0,016.jpg,139.516766491,140.048953255999,141.544602251997,NaN,0,,
76,1,0,020.jpg,141.560742015998,142.093882200999,143.690276178997,NaN,1,,
77,1,0,052.jpg,143.706834733999,144.239082542997,145.635536091999,NaN,1,,
78,1,0,058.jpg,145.652071901997,146.184361920998,147.980268750998,NaN,1,,
79,1,0,028.jpg,147.996823195997,148.528621796999,149.326776194997,NaN,1,,
80,1,0,027.jpg,149.343578827,149.875483421998,151.870871951,NaN,1,,
81,1,0,054.jpg,151.887601775998,152.419561512997,154.713199299,NaN,1,,
82,1,0,051.jpg,154.730976851999,155.262769863999,155.362757848998,NaN,1,,
83,1,0,029.jpg,155.379511203999,155.911576609,158.006447344,NaN,1,,
84,1,0,023.jpg,158.022153413,158.554997923999,160.151342470999,NaN,1,,
85,1,0,047.jpg,160.201214380999,160.733516773998,162.928125066999,NaN,1,,
86,1,0,048.jpg,162.944877893999,163.476841012998,165.771540187998,NaN,1,,
87,1,0,018.jpg,165.804719619999,166.336765271997,168.831152021998,NaN,1,,
88,1,0,057.jpg,168.847533953998,169.379822794999,170.477057148,NaN,1,,
89,1,0,056.jpg,170.493878616999,171.025946926999,171.623348109999,NaN,1,,
90,1,0,026.jpg,171.641025834997,172.172907984997,173.370298303998,NaN,1,,
91,1,0,055.jpg,173.386915266998,173.918789571999,175.814484360999,NaN,1,,
92,1,0,060.jpg,175.830983747001,176.363097247999,178.757851619997,NaN,1,,
93,1,0,021.jpg,178.789786801997,176.363097247999,179.306430425997,NaN,1,,
94,1,0,022.jpg,179.322765612,176.363097247999,179.855097684998,NaN,1,,
95,1,0,053.jpg,179.871454737,180.403713727999,182.897749586999,NaN,1,,
96,1,0,050.jpg,182.914373087999,180.403713727999,183.446651546998,NaN,1,,
97,1,0,049.jpg,183.463280652999,183.995214913,184.294342916997,NaN,1,,
98,1,0,019.jpg,184.311296735999,184.843070657,186.639021581999,NaN,1,,
99,1,0,025.jpg,186.672096831,187.204026873998,188.102280732001,NaN,1,,
100,1,0,025.jpg,188.118875721997,188.650845766999,189.049983520999,NaN,0,,
101,1,0,059.jpg,189.066434929999,189.598821390999,192.092755712998,NaN,1,,
102,1,0,046.jpg,192.109351931998,192.64141638,193.439713946998,NaN,1,,
103,1,0,017.jpg,193.456184598999,193.988251881998,194.187894365998,NaN,1,,
104,1,0,030.jpg,194.204239391998,194.736513331998,195.832771431,NaN,1,,
105,1,0,021.jpg,195.850407472997,196.382557098997,198.777074531998,NaN,1,,
106,1,0,017.jpg,198.793805196998,199.325530360999,200.423062108999,NaN,1,,
107,1,0,026.jpg,200.439552058,200.971866025,203.266308630999,NaN,1,,
108,1,0,020.jpg,203.282979763997,203.815102084998,205.511219920998,NaN,1,,
109,1,0,056.jpg,205.527770114,206.059811142,206.159626434001,NaN,1,,
110,1,0,053.jpg,206.176440978998,206.708502212998,209.002876097999,NaN,1,,
111,1,0,057.jpg,209.019743952998,209.551587143,210.050532333,NaN,1,,
112,1,0,029.jpg,210.067018256999,210.599013954998,211.097846214998,NaN,1,,
113,1,0,028.jpg,211.114541776999,211.646834403,213.143360243997,NaN,1,,
114,1,0,018.jpg,213.159381365,213.692049574998,214.988633960998,NaN,1,,
115,1,0,046.jpg,215.004836148,215.537493713,217.033844067999,NaN,1,,
116,1,0,054.jpg,217.050543146001,215.537493713,217.582746298998,NaN,1,,
117,1,0,054.jpg,217.599337109998,218.131554654999,219.827464462,NaN,0,,
118,1,0,022.jpg,219.844046975999,220.375960524998,221.373705768998,NaN,1,,
119,1,0,055.jpg,221.390402744997,221.922488581,224.017593887998,NaN,1,,
120,1,0,030.jpg,224.034304929999,224.565637721,226.860780591,NaN,1,,
121,1,0,060.jpg,226.877301598,227.409467746998,227.609151794,NaN,1,,
122,1,0,052.jpg,227.625894276,228.157447632999,230.651740097001,NaN,1,,
123,1,0,016.jpg,230.668393806998,231.200469936,231.899006265998,NaN,1,,
124,1,0,049.jpg,231.915434162998,232.447020418,234.842064411998,NaN,1,,
125,1,0,058.jpg,234.858464274999,235.390585534999,235.490570653998,NaN,1,,
126,1,0,027.jpg,235.506497325998,235.390585534999,236.039217718,NaN,1,,
127,1,0,059.jpg,236.055727871,236.587858005998,236.787410510999,NaN,1,,
128,1,0,019.jpg,236.804220374001,237.336186245,238.333807023999,NaN,1,,
129,1,0,047.jpg,238.350675158999,238.882443091999,239.979834490998,NaN,1,,
130,1,0,048.jpg,239.996493062998,240.528506958999,242.923078587999,NaN,1,,
131,1,0,024.jpg,242.955687882,243.488296301999,243.687856086999,NaN,1,,
132,1,0,024.jpg,243.70446365,244.236419155,246.730413739999,NaN,0,,
133,1,0,023.jpg,246.746838824998,247.278390117997,249.075166921,NaN,1,,
134,1,0,051.jpg,249.091685092997,249.623541707999,251.918167756998,NaN,1,,
135,1,0,051.jpg,251.93493091,252.467050609001,253.065454317999,NaN,0,,
136,1,0,025.jpg,253.082287138997,253.613864068,255.410074264997,NaN,1,,
137,1,0,050.jpg,255.426469638998,255.958032761999,256.456977637998,NaN,1,,
138,1,0,049.jpg,256.474101362997,257.006264233998,257.804381269998,NaN,1,,
139,1,0,058.jpg,257.821243267997,258.353288820999,260.447808229997,NaN,1,,
140,1,0,016.jpg,260.464024247998,260.996135185,261.195686863997,NaN,1,,
141,1,0,016.jpg,261.21275617,261.744154081,264.139645269999,NaN,0,,
142,1,0,048.jpg,264.156418913,264.688164117997,264.987688475998,NaN,1,,
143,1,0,024.jpg,265.004281459998,265.536175703997,267.531527333998,NaN,1,,
144,1,0,029.jpg,267.548112106,268.080500559998,270.474768566997,NaN,1,,
145,1,0,057.jpg,270.507680234998,271.039838932,273.334653079997,NaN,1,,
146,1,0,056.jpg,273.351164315998,273.883549570997,274.580862921997,NaN,1,,
147,1,0,051.jpg,274.598199709999,275.130542567,275.928355451,NaN,1,,
148,1,0,023.jpg,275.944117847997,276.476688428,278.17307777,NaN,1,,
149,1,0,052.jpg,278.189833172,278.721105458997,279.120911483998,NaN,1,,
150,1,0,053.jpg,279.137604612999,279.669486822997,281.066032309998,NaN,1,,
151,1,0,060.jpg,281.083175822998,281.615083599998,282.113123725998,NaN,1,,
152,1,0,019.jpg,282.130209359999,282.662591901997,284.757556869998,NaN,1,,
153,1,0,054.jpg,284.774048382998,285.306597381998,286.204236744998,NaN,1,,
154,1,0,025.jpg,286.221025785999,286.753080914998,289.247177162,NaN,1,,
155,1,0,028.jpg,289.263489680998,289.795293941999,290.294515787999,NaN,1,,
156,1,0,026.jpg,290.310871354999,290.843114673,292.040584774997,NaN,1,,
157,1,0,047.jpg,292.056264409999,292.589051119998,293.188044495997,NaN,1,,
158,1,0,050.jpg,293.204315029998,293.736263400999,294.334763014998,NaN,1,,
159,1,0,046.jpg,294.351480671998,294.883349120999,295.681446856997,NaN,1,,
160,1,0,059.jpg,295.706850538998,296.230176087,296.529576097997,NaN,1,,
161,1,0,055.jpg,296.546157460998,297.078266370998,299.174019503,NaN,1,,
162,1,0,022.jpg,299.189760993999,297.078266370998,299.722414709999,NaN,1,,
163,1,0,020.jpg,299.739476684997,300.270071003,301.170005273998,NaN,1,,
164,1,0,017.jpg,301.184900386997,301.717384127998,304.013393885998,NaN,1,,
165,1,0,021.jpg,304.046402560998,304.577568747998,305.475514677,NaN,1,,
166,1,0,030.jpg,305.508571341998,306.040904108999,306.140814618,NaN,1,,
167,1,0,018.jpg,306.173037701999,306.706064320999,307.005385401,NaN,1,,
168,1,0,027.jpg,307.021921426,307.554031865999,308.451941321,NaN,1,,
169,1,0,051.jpg,308.467997622,307.554031865999,309.000532902999,NaN,1,,
170,1,0,055.jpg,309.017162111999,307.554031865999,309.549463714,NaN,1,,
171,1,0,017.jpg,309.565833651999,310.097800804,311.993273501997,NaN,1,,
172,1,0,017.jpg,312.010738141998,312.542268664998,313.340363587999,NaN,0,,
173,1,0,026.jpg,313.357043889999,313.889094164999,314.687322715999,NaN,1,,
174,1,0,058.jpg,314.703356671998,315.235761316999,316.332744823998,NaN,1,,
175,1,0,058.jpg,316.349742155999,316.882221610998,317.480394800998,NaN,0,,
176,1,0,049.jpg,317.496950598998,318.029839069997,320.224154293999,NaN,1,,
177,1,0,018.jpg,320.240760888999,320.772391751998,322.767835125,NaN,1,,
178,1,0,018.jpg,322.785535401999,320.772391751998,323.316123155,NaN,0,,
179,1,0,020.jpg,323.333408676001,323.865811037998,325.062664916997,NaN,1,,
180,1,0,060.jpg,325.079111532999,325.610940577997,327.705635417999,NaN,1,,
181,1,0,022.jpg,327.722797670998,328.255074585999,329.451437984997,NaN,1,,
182,1,0,023.jpg,329.468912822998,329.999793056999,331.396578102998,NaN,1,,
183,1,0,023.jpg,331.414323752,331.947013281999,332.943561910997,NaN,0,,
184,1,0,029.jpg,332.960476062999,331.947013281999,333.476092231998,NaN,1,,
185,1,0,019.jpg,333.492444968997,334.008477276999,335.022204293,NaN,1,,
186,1,0,019.jpg,335.039278201999,334.008477276999,335.570535348998,NaN,0,,
187,1,0,024.jpg,335.587894376,336.119866534998,338.016473312,NaN,1,,
188,1,0,056.jpg,338.049259957999,338.58114101,338.780195757998,NaN,1,,
189,1,0,056.jpg,338.797074201997,339.329224150999,341.025790227999,NaN,0,,
190,1,0,046.jpg,341.041843605999,341.573184334,342.171431429,NaN,1,,
191,1,0,047.jpg,342.188404782999,342.720486481998,344.017867606999,NaN,1,,
192,1,0,048.jpg,344.034323595999,344.566327272998,345.464611971998,NaN,1,,
193,1,0,059.jpg,345.481196514,346.013256613998,347.111711853999,NaN,1,,
194,1,0,016.jpg,347.144110964,347.676111254998,349.472842812,NaN,1,,
195,1,0,025.jpg,349.488410331,350.020620313,350.519503469997,NaN,1,,
196,1,0,057.jpg,350.534857757,351.067834910998,353.561831398998,NaN,1,,
197,1,0,021.jpg,353.578700222999,354.111169067997,355.905862443,NaN,1,,
198,1,0,027.jpg,355.923268907998,356.455299573998,358.449761232998,NaN,1,,
199,1,0,027.jpg,358.467055018999,359.000054411998,359.198962838,NaN,0,,
200,1,0,052.jpg,359.215606577,359.747779379999,361.942468074998,NaN,1,,
201,1,0,053.jpg,361.975729975999,362.507807144,363.605148547998,NaN,1,,
202,1,0,053.jpg,363.621847016999,364.154505703998,366.649011268997,NaN,0,,
203,1,0,030.jpg,366.664442400997,367.180061354,369.492458294997,NaN,1,,
204,1,0,050.jpg,369.524643135999,370.056614235,370.655283786,NaN,1,,
205,1,0,054.jpg,370.671407318998,371.204022130998,371.404650324999,NaN,1,,
206,1,0,028.jpg,371.418946645997,371.935608963999,372.650673493998,NaN,1,,
207,1,0,028.jpg,372.667210975,373.182672382998,374.397588380998,NaN,0,,
208,1,0,052.jpg,374.412998771997,374.944000768999,376.940469043999,NaN,1,,
209,1,0,055.jpg,376.956995436998,377.489521522999,379.385760909998,NaN,1,,
210,1,0,051.jpg,379.401381559001,379.932985301999,381.828954733999,NaN,1,,
211,1,0,050.jpg,381.845495453999,382.361106431999,382.776728287998,NaN,1,,
212,1,0,025.jpg,382.792817270998,383.325660618997,384.821944473999,NaN,1,,
213,1,0,016.jpg,384.838526185998,385.370812751,387.665087342,NaN,1,,
214,1,0,020.jpg,387.680794767999,388.197288900999,390.50832904,NaN,1,,
215,1,0,022.jpg,390.524413709998,391.057226048997,393.052409838998,NaN,1,,
216,1,0,054.jpg,393.069340842998,393.600091811997,395.99658341,NaN,1,,
217,1,0,030.jpg,396.012198527998,396.544187037998,398.341147511997,NaN,1,,
218,1,0,030.jpg,398.356644772997,398.888756647997,400.285454430999,NaN,0,,
219,1,0,019.jpg,400.302059210997,400.834042504997,401.632174063998,NaN,1,,
220,1,0,023.jpg,401.64803611,402.164371085997,403.976788502998,NaN,1,,
221,1,0,018.jpg,403.992725808999,404.525633718,405.123251550998,NaN,1,,
222,1,0,018.jpg,405.140694068999,405.672633916998,406.968746511,NaN,0,,
223,1,0,021.jpg,406.986548130997,407.518182386,409.214381517999,NaN,1,,
224,1,0,056.jpg,409.231027256999,409.763093841,410.161517943998,NaN,1,,
225,1,0,017.jpg,410.178780619997,410.710120415999,411.509050941997,NaN,1,,
226,1,0,048.jpg,411.525747210999,412.057607133,414.452637704999,NaN,1,,
227,1,0,047.jpg,414.468551129998,415.000779656999,415.897895959999,NaN,1,,
228,1,0,053.jpg,415.915253757998,416.447228827998,417.345248033998,NaN,1,,
229,1,0,057.jpg,417.361732211997,417.893862134999,419.391629128,NaN,1,,
230,1,0,049.jpg,419.407081891997,419.939349476997,420.138577868998,NaN,1,,
231,1,0,046.jpg,420.155491457997,420.687035215,421.686081955999,NaN,1,,
232,1,0,060.jpg,421.701520680999,422.233961348,424.726820543998,NaN,1,,
233,1,0,060.jpg,424.744399178999,425.276887397999,426.274689988,NaN,0,,
234,1,0,026.jpg,426.308082599,426.839418763,427.238503018998,NaN,1,,
235,1,0,026.jpg,427.255123661998,427.786963618,429.484457917999,NaN,0,,
236,1,0,059.jpg,429.499247317999,430.03224112,430.430479966999,NaN,1,,
237,1,0,058.jpg,430.447422151999,430.980027712998,432.078226744998,NaN,1,,
238,1,0,027.jpg,432.093709413999,432.626139456999,433.225614390998,NaN,1,,
239,1,0,027.jpg,433.241016385,433.756560104001,435.369322500999,NaN,0,,
240,1,0,024.jpg,435.385320698999,435.918014692998,436.217328973999,NaN,1,,
241,1,0,029.jpg,436.233943895997,435.918014692998,436.766155586,NaN,1,,
242,1,0,050.jpg,436.782784970997,437.315051899997,438.911287198,NaN,1,,
243,1,0,058.jpg,438.927609732,437.315051899997,439.459688658997,NaN,1,,
244,1,0,058.jpg,439.477395587001,440.008516929,441.105891875999,NaN,0,,
245,1,0,019.jpg,441.122519529999,441.654629663,443.949308260999,NaN,1,,
246,1,0,057.jpg,443.965827429998,444.498736922,445.993742332997,NaN,1,,
247,1,0,057.jpg,446.010727253997,446.54330456,448.438564263,NaN,0,,
248,1,0,021.jpg,448.455538237999,448.988006713,450.484027112998,NaN,1,,
249,1,0,022.jpg,450.516986065999,451.048649763998,451.549135072997,NaN,1,,
250,1,0,052.jpg,451.581763819999,452.113608997999,452.213149533,NaN,1,,
251,1,0,053.jpg,452.229042511,452.761991015999,454.357505548,NaN,1,,
252,1,0,047.jpg,454.374526305997,454.906710153999,456.004276369,NaN,1,,
253,1,0,026.jpg,456.021722670997,456.552604436998,457.451345472,NaN,1,,
254,1,0,049.jpg,457.467535966,457.999317611,458.497744708999,NaN,1,,
255,1,0,059.jpg,458.514458103,459.046568293998,459.645535875999,NaN,1,,
256,1,0,023.jpg,459.662302001998,460.194242759997,462.489856832999,NaN,1,,
257,1,0,023.jpg,462.505687782999,463.037533372,464.733440275999,NaN,0,,
258,1,0,025.jpg,464.750147503997,465.282167752997,465.382016051997,NaN,1,,
259,1,0,024.jpg,465.398650063999,465.282167752997,465.930715382998,NaN,1,,
260,1,0,056.jpg,465.946941586,466.479450064999,467.476513321999,NaN,1,,
261,1,0,048.jpg,467.493139252998,468.025725642998,469.522258879999,NaN,1,,
262,1,0,048.jpg,469.538880589,470.071180307998,471.367794279999,NaN,0,,
263,1,0,029.jpg,471.383520070998,471.916884414997,472.315545350997,NaN,1,,
264,1,0,027.jpg,472.331606322998,472.864246804998,474.660038654998,NaN,1,,
265,1,0,054.jpg,474.692917991997,475.22573219,475.624526339998,NaN,1,,
266,1,0,028.jpg,475.641386834999,476.173331941998,477.469669040998,NaN,1,,
267,1,0,030.jpg,477.486819697999,478.018907706999,478.617445623,NaN,1,,
268,1,0,016.jpg,478.634024905998,479.149590759,481.660388023,NaN,1,,
269,1,0,055.jpg,481.676818533997,482.209132586999,482.807619944,NaN,1,,
270,1,0,018.jpg,482.824147446998,483.357229293997,485.751731247998,NaN,1,,
271,1,0,017.jpg,485.767323396998,486.299367309999,488.693847114999,NaN,1,,
272,1,0,017.jpg,488.711376488998,489.242671934,491.237674052998,NaN,0,,
273,1,0,017.jpg,491.254213025,491.786679183999,492.982595509999,NaN,0,,
274,1,0,020.jpg,493.000511159,493.532567868999,495.926291086998,NaN,1,,
275,1,0,060.jpg,495.943132210999,496.475453531999,497.073967758999,NaN,1,,
276,1,0,060.jpg,497.089979393997,497.605939470999,497.722457894,NaN,0,,
277,1,0,051.jpg,497.739163956998,498.271247532,499.967078555997,NaN,1,,
278,1,0,046.jpg,499.983662906998,500.515747861999,502.112334764999,NaN,1,,
279,1,0,058.jpg,502.128976423999,502.660811704998,503.45898204,NaN,1,,
280,1,0,047.jpg,503.493174245999,504.024456457999,504.124145868998,NaN,1,,
281,1,0,055.jpg,504.140570364998,504.656135218,505.272344507997,NaN,1,,
282,1,0,027.jpg,505.287970136,505.820190128998,507.915005242998,NaN,1,,
283,1,0,018.jpg,507.931734516998,508.463806311,510.160628550999,NaN,1,,
284,1,0,029.jpg,510.175956282998,510.691886893997,511.306977402,NaN,1,,
285,1,0,049.jpg,511.324845397998,511.856602486998,514.250154974998,NaN,1,,
286,1,0,016.jpg,514.267708834999,514.799277329999,515.198133500999,NaN,1,,
287,1,0,026.jpg,515.214392686998,515.747182586998,516.644441777,NaN,1,,
288,1,0,053.jpg,516.659993522997,517.193199833,518.289659848,NaN,1,,
289,1,0,028.jpg,518.307147217998,518.839444155998,519.038903624998,NaN,1,,
290,1,0,048.jpg,519.055409295001,519.587809622,519.886774496998,NaN,1,,
291,1,0,060.jpg,519.902527450999,520.435795513,520.634639690998,NaN,1,,
292,1,0,019.jpg,520.651746977997,521.183749775999,521.682852066999,NaN,1,,
293,1,0,019.jpg,521.699273115999,522.231230366,523.029685899997,NaN,0,,
294,1,0,059.jpg,523.045757558,523.57817434,523.977322242998,NaN,1,,
295,1,0,020.jpg,523.993758851997,523.57817434,524.509311378999,NaN,1,,
296,1,0,025.jpg,524.525971774998,525.058119555,526.554706806997,NaN,1,,
297,1,0,051.jpg,526.571024112,527.103115300997,527.502396493997,NaN,1,,
298,1,0,052.jpg,527.53614823,528.067584688,530.561745692998,NaN,1,,
299,1,0,023.jpg,530.577916102,531.110462070999,533.205481866,NaN,1,,
300,1,0,021.jpg,533.221686628,533.754182231998,534.851626496999,NaN,1,,
301,1,0,057.jpg,534.885315462998,535.416939996998,537.112888528998,NaN,1,,
302,1,0,054.jpg,537.129526728,537.661640099999,539.557406907999,NaN,1,,
303,1,0,017.jpg,539.574831923997,540.106105968,541.10361505,NaN,1,,
304,1,0,017.jpg,541.120152287,541.652164355,541.751961770999,NaN,0,,
305,1,0,030.jpg,541.768330163999,542.300713458997,543.198282764999,NaN,1,,
306,1,0,056.jpg,543.214949939,543.747218190998,545.442591572999,NaN,1,,
307,1,0,024.jpg,545.459810742999,545.992092787998,546.491726669999,NaN,1,,
308,1,0,046.jpg,546.508560012,547.039406061998,547.737803525,NaN,1,,
309,1,0,046.jpg,547.754514462998,548.287190042,550.681990460998,NaN,0,,
310,1,0,022.jpg,550.696918238998,551.229882578999,553.724795668,NaN,1,,
311,1,0,050.jpg,553.739899257998,554.255812038999,555.86862135,NaN,1,,
312,1,0,058.jpg,555.885355021997,556.417495066999,556.616386631998,NaN,1,,
313,1,0,058.jpg,556.633651223998,557.165704644998,557.365181965997,NaN,0,,
314,1,0,021.jpg,557.381747104999,557.913979548997,559.211977629999,NaN,1,,
315,1,0,048.jpg,559.228652233,559.759440102,560.357945070999,NaN,1,,
316,1,0,025.jpg,560.374876777998,560.906755933,561.30582976,NaN,1,,
317,1,0,030.jpg,561.323589118998,561.854693079,561.954243568998,NaN,1,,
318,1,0,019.jpg,561.971376054,562.502819730998,563.500127751999,NaN,1,,
319,1,0,055.jpg,563.534544914,564.066101371998,564.564908502998,NaN,1,,
320,1,0,049.jpg,564.581550731,565.096545824999,567.508093010998,NaN,1,,
321,1,0,049.jpg,567.524589146,568.05674421,568.555206257999,NaN,0,,
322,1,0,017.jpg,568.571796693999,569.104425500998,569.303648309,NaN,1,,
323,1,0,028.jpg,569.320261719,569.104425500998,569.853588291,NaN,1,,
324,1,0,018.jpg,569.868942569999,570.401245891,572.695721414999,NaN,1,,
325,1,0,024.jpg,572.712265375998,573.244363878999,574.541428327997,NaN,1,,
326,1,0,027.jpg,574.574616456997,575.106934757998,576.004506010999,NaN,1,,
327,1,0,026.jpg,576.021128226999,576.553303262997,578.847872500999,NaN,1,,
328,1,0,054.jpg,578.864525532998,579.396545901,580.692474387997,NaN,1,,
329,1,0,016.jpg,580.710133146,581.242162413997,582.240822624,NaN,1,,
330,1,0,057.jpg,582.256535343,582.788707673,583.686613382997,NaN,1,,
331,1,0,057.jpg,583.703062982,584.235222148,585.532365161998,NaN,0,,
332,1,0,046.jpg,585.548657392999,584.235222148,586.080753578997,NaN,1,,
333,1,0,047.jpg,586.097252355998,586.629307883999,587.428378290999,NaN,1,,
334,1,0,056.jpg,587.445144867997,587.976369823999,589.772210764997,NaN,1,,
335,1,0,022.jpg,589.788782002001,590.320882968997,592.815090221,NaN,1,,
336,1,0,050.jpg,592.831398427999,593.480005699999,594.959456213997,NaN,1,593.347139707999,
337,1,0,050.jpg,-0.0191931580011442,0.512862941999629,2.50904926099975,NaN,0,,594.993476002001
338,1,0,051.jpg,2.52567495599942,3.05787738999788,5.15280942699974,NaN,1,,
339,1,0,029.jpg,5.16945235299863,5.70143520599959,7.99610998999924,NaN,1,,
340,1,0,023.jpg,8.01250830299978,8.54469611599779,10.1400276189997,NaN,1,,
341,1,0,052.jpg,10.157600839997,10.6895600079988,10.8894499279995,NaN,1,,
342,1,0,060.jpg,10.9054676419983,11.4369540389998,13.4331776359977,NaN,1,,
343,1,0,020.jpg,13.4500344629996,13.9821240129968,16.176705908998,NaN,1,,
344,1,0,059.jpg,16.1931749609976,16.7253187329989,16.8251848,NaN,1,,
345,1,0,059.jpg,16.8417739849974,17.3737963789972,19.2694478049998,NaN,0,,
346,1,0,053.jpg,19.2860938879967,19.8182129099987,20.017333243999,NaN,1,,
347,1,0,057.jpg,20.0341862009991,20.5665973169998,22.7611154539991,NaN,1,,
348,1,0,029.jpg,22.7775395649987,23.3102753929998,25.3053219219983,NaN,1,,
349,1,0,027.jpg,25.3218433609982,25.8538312659985,28.1484616649977,NaN,1,,
350,1,0,026.jpg,28.1652027579985,28.6973105009965,30.7920473529994,NaN,1,,
351,1,0,018.jpg,30.8091235929969,31.3413491459978,32.6378760029984,NaN,1,,
352,1,0,018.jpg,32.6545660159973,33.1857814309988,33.5848881549973,NaN,0,,
353,1,0,059.jpg,33.6024135599982,34.1343870699966,34.4327811859985,NaN,1,,
354,1,0,016.jpg,34.4502217989975,34.9825134469975,35.0819548629988,NaN,1,,
355,1,0,046.jpg,35.0979636099983,35.6310550039998,36.6284351649992,NaN,1,,
356,1,0,060.jpg,36.6452482689965,37.1774634619978,37.9754080999992,NaN,1,,
357,1,0,053.jpg,37.9919491389992,38.5239491289976,38.922890095997,NaN,1,,
358,1,0,023.jpg,38.939947740997,39.4718324949972,39.8709022629992,NaN,1,,
359,1,0,047.jpg,39.887430666,40.419486609997,42.2144697059994,NaN,1,,
360,1,0,058.jpg,42.2485728449974,42.7807084569977,42.8804302739991,NaN,1,,
361,1,0,024.jpg,42.8969477899991,43.429233568997,43.8279988119975,NaN,1,,
362,1,0,019.jpg,43.8447483359996,44.3769230839971,45.4743859619994,NaN,1,,
363,1,0,019.jpg,45.4909702349978,46.0230194399992,48.5171083319983,NaN,0,,
364,1,0,049.jpg,48.533625778,49.0658784989973,49.2655062630001,NaN,1,,
365,1,0,049.jpg,49.2821275959977,49.814337009997,50.6113186119983,NaN,0,,
366,1,0,025.jpg,50.6285747619986,51.1609358269998,53.0565479179968,NaN,1,,
367,1,0,054.jpg,53.0729746759971,53.6052743820001,55.9996307009969,NaN,1,,
368,1,0,050.jpg,56.0159879849998,56.548460703998,57.8452797099999,NaN,1,,
369,1,0,056.jpg,57.8616846179975,58.3938692049996,58.5936065269998,NaN,1,,
370,1,0,021.jpg,58.6098223729969,59.1413248229983,59.8404814719979,NaN,1,,
371,1,0,021.jpg,59.857051281997,60.3891394989987,62.384594854997,NaN,0,,
372,1,0,052.jpg,62.4011477849999,62.9332658619969,64.3289251299975,NaN,1,,
373,1,0,055.jpg,64.3458278129983,64.878517203997,67.271988212,NaN,1,,
374,1,0,055.jpg,67.2893792589966,67.8209093959995,68.0211540519995,NaN,0,,
375,1,0,048.jpg,68.0366231219996,68.5532583229979,70.0665555739979,NaN,1,,
376,1,0,030.jpg,70.0829328919972,70.6149535299992,71.7126956149987,NaN,1,,
377,1,0,028.jpg,71.7289333079971,72.2612303279966,73.857724538997,NaN,1,,
378,1,0,020.jpg,73.8737119939979,74.4063542609983,76.9003607479972,NaN,1,,
379,1,0,017.jpg,76.9162143199974,77.4490231049967,79.145181953998,NaN,1,,
380,1,0,022.jpg,79.1784130779997,79.7103303979966,80.8077218629987,NaN,1,,
381,1,0,051.jpg,80.8245521039971,81.3563099149978,82.3540068080001,NaN,1,,
382,1,0,055.jpg,82.3706470479992,82.9019079919999,84.5985734259993,NaN,1,,
383,1,0,020.jpg,84.6154098599982,85.1474961629974,85.8457379399988,NaN,1,,
384,1,0,017.jpg,85.8624312059983,86.3947671259994,87.1927879469986,NaN,1,,
385,1,0,051.jpg,87.209357861997,87.7412108839999,88.3395263429993,NaN,1,,
386,1,0,058.jpg,88.3563980189974,88.8887789739965,90.4850462289978,NaN,1,,
387,1,0,027.jpg,90.5014047269979,91.0336329199999,91.6323610979998,NaN,1,,
388,1,0,030.jpg,91.648930239,92.1810124429976,94.1762776079995,NaN,1,,
389,1,0,018.jpg,94.1922351419998,94.7247831789973,97.0191256549988,NaN,1,,
390,1,0,019.jpg,97.0353146130001,97.5682570779973,99.2641370539968,NaN,1,,
391,1,0,048.jpg,99.2805449779989,99.8795673579989,101.607580483997,NaN,1,,
392,1,0,052.jpg,101.625193884,102.157296146997,102.755896093,NaN,1,,
393,1,0,024.jpg,102.771935544999,103.304555065999,105.798731161998,NaN,1,,
394,1,0,023.jpg,105.814836228998,106.347522909,107.245557465998,NaN,1,,
395,1,0,049.jpg,107.261609776,107.794095933998,110.088793496998,NaN,1,,
396,1,0,047.jpg,110.121794183,110.654111933,111.152807782997,NaN,1,,
397,1,0,025.jpg,111.169499158997,111.701575665,113.696803981999,NaN,1,,
398,1,0,060.jpg,113.713087554999,114.245451758998,114.943963918999,NaN,1,,
399,1,0,059.jpg,114.960404146997,115.492675016998,116.290634366997,NaN,1,,
400,1,0,016.jpg,116.307394662999,116.839748056998,119.033639213998,NaN,1,,
401,1,0,022.jpg,119.050622916999,119.582975865,120.381071530999,NaN,1,,
402,1,0,056.jpg,120.397975789998,120.928935137999,122.226867424997,NaN,1,,
403,1,0,054.jpg,122.243410823998,122.775212981,124.471439723999,NaN,1,,
404,1,0,054.jpg,124.488292209,125.01982623,126.417099386999,NaN,0,,
405,1,0,026.jpg,126.433386039,126.965810106998,128.362285559997,NaN,1,,
406,1,0,050.jpg,128.378793699998,126.965810106998,128.911071691,NaN,1,,
407,1,0,053.jpg,128.927121846998,129.459805293998,131.953985785,NaN,1,,
408,1,0,028.jpg,131.970080743999,132.502537929999,133.400384261,NaN,1,,
409,1,0,046.jpg,133.416573328999,133.949262446,136.044360499,NaN,1,,
410,1,0,057.jpg,136.060767024999,136.592905047997,138.388594617998,NaN,1,,
411,1,0,029.jpg,138.404976218997,138.954102667998,140.034696183997,NaN,1,,
412,1,0,021.jpg,140.051216458,140.583489040997,141.980246817999,NaN,1,,
413,1,0,055.jpg,141.996687827999,142.528881279999,143.925613089999,NaN,1,,
414,1,0,028.jpg,143.942183444,144.474285109998,145.771214084998,NaN,1,,
415,1,0,026.jpg,145.787813275998,146.320096353,148.315311782997,NaN,1,,
416,1,0,026.jpg,148.331862876999,146.320096353,148.864050509997,NaN,0,,
417,1,0,051.jpg,148.880330622997,149.412780275998,149.512680083997,NaN,1,,
418,1,0,052.jpg,149.529288602997,150.061229659997,152.056288606997,NaN,1,,
419,1,0,052.jpg,152.073075568998,152.605096325999,154.201510674,NaN,0,,
420,1,0,025.jpg,154.217912791999,154.750312912998,155.049287117999,NaN,1,,
421,1,0,047.jpg,155.065914389997,155.597986848999,157.892806874999,NaN,1,,
422,1,0,030.jpg,157.925348961999,158.457772141999,159.755085293997,NaN,1,,
423,1,0,027.jpg,159.803812247999,160.336879207,161.135187747997,NaN,1,,
424,1,0,020.jpg,161.151898264998,161.683704865998,162.681526177999,NaN,1,,
425,1,0,046.jpg,162.698121543999,163.229901866998,163.828751108998,NaN,1,,
426,1,0,054.jpg,163.845305421997,164.377047823997,166.372398598,NaN,1,,
427,1,0,060.jpg,166.389215159998,166.921327721,168.318220983998,NaN,1,,
428,1,0,018.jpg,168.334857630998,166.921327721,168.866849484999,NaN,1,,
429,1,0,058.jpg,168.882836031997,169.415651626998,171.410738203998,NaN,1,,
430,1,0,021.jpg,171.427493299998,171.959594443997,173.755527101999,NaN,1,,
431,1,0,017.jpg,173.772221476,174.303970989,175.201662813997,NaN,1,,
432,1,0,022.jpg,175.218363229,175.750675359999,177.845757911997,NaN,1,,
433,1,0,016.jpg,177.862193859997,178.394282535999,179.49188478,NaN,1,,
434,1,0,029.jpg,179.508386448997,180.040655717999,182.035462295997,NaN,1,,
435,1,0,024.jpg,182.051870141997,182.584485758998,182.983415600997,NaN,1,,
436,1,0,050.jpg,183.000158264997,183.532286797999,185.926464280998,NaN,1,,
437,1,0,050.jpg,185.943292232998,186.475398196999,187.772261176997,NaN,0,,
438,1,0,053.jpg,187.788382281,188.320877137998,190.216314325997,NaN,1,,
439,1,0,053.jpg,190.232626003999,190.764794989998,190.964793743999,NaN,0,,
440,1,0,053.jpg,190.981191700997,191.513661342997,193.708450065998,NaN,0,,
441,1,0,056.jpg,193.741298075998,194.273603573998,196.568270608997,NaN,1,,
442,1,0,056.jpg,196.584942875998,197.116847743997,198.413907643,NaN,0,,
443,1,0,019.jpg,198.446764610999,198.979097653999,200.974419410999,NaN,1,,
444,1,0,057.jpg,200.990973278,201.523033906997,203.917504492998,NaN,1,,
445,1,0,049.jpg,203.934232249998,204.466478441998,205.962716124999,NaN,1,,
446,1,0,059.jpg,205.979183542,206.511449268997,207.109984608,NaN,1,,
447,1,0,023.jpg,207.126197070997,206.511449268997,207.658333170999,NaN,1,,
448,1,0,048.jpg,207.674463362997,208.206904379997,210.601725693999,NaN,1,,
449,1,0,027.jpg,210.618567561,211.150562130999,212.247934139999,NaN,1,,
450,1,0,054.jpg,212.264670659999,212.796623230999,215.290848109998,NaN,1,,
451,1,0,054.jpg,215.307634760997,215.839433739999,216.338145367998,NaN,0,,
452,1,0,052.jpg,216.354504334999,216.886960322998,216.986899476997,NaN,1,,
453,1,0,055.jpg,217.002765760997,217.535482724998,219.530817619998,NaN,1,,
454,1,0,057.jpg,219.547311819999,220.079155936997,222.573534176998,NaN,1,,
455,1,0,030.jpg,222.589832972997,223.12221125,225.017800082998,NaN,1,,
456,1,0,048.jpg,225.034355137999,225.566730369999,227.661538302997,NaN,1,,
457,1,0,018.jpg,227.678295005997,228.210288820999,229.008412226998,NaN,1,,
458,1,0,060.jpg,229.02430555,229.55624889,232.050672777998,NaN,1,,
459,1,0,053.jpg,232.066711087999,232.583301068997,234.495084970997,NaN,1,,
460,1,0,053.jpg,234.511936824998,235.043941173997,237.438507245999,NaN,0,,
461,1,0,058.jpg,237.454892311998,237.987240161998,239.982528802997,NaN,1,,
462,1,0,016.jpg,239.999375419997,240.530989722,241.429225282998,NaN,1,,
463,1,0,029.jpg,241.44581487,241.978051172999,243.773619459997,NaN,1,,
464,1,0,023.jpg,243.790451974997,244.322539294997,246.716579491997,NaN,1,,
465,1,0,026.jpg,246.733167106999,247.265355598,247.963742680997,NaN,1,,
466,1,0,049.jpg,247.979406200997,248.512432602998,250.807134498998,NaN,1,,
467,1,0,022.jpg,250.823262629998,251.355322748997,252.054137160998,NaN,1,,
468,1,0,017.jpg,252.070287899998,252.602820513999,252.902074600999,NaN,1,,
469,1,0,019.jpg,252.918063809997,253.450793971999,253.75006726,NaN,1,,
470,1,0,047.jpg,253.783184213,254.315409225997,256.210625773998,NaN,1,,
471,1,0,046.jpg,256.227045918,256.759533582997,258.854717194998,NaN,1,,
472,1,0,046.jpg,258.871453194999,259.403028167999,260.200715015999,NaN,0,,
473,1,0,050.jpg,260.217330255,260.750187348,262.944663404,NaN,1,,
474,1,0,059.jpg,262.960816777999,263.477163353997,263.892845079998,NaN,1,,
475,1,0,020.jpg,263.909357873999,264.441245725997,265.837929444999,NaN,1,,
476,1,0,021.jpg,265.854581176998,266.387182593997,268.581015571999,NaN,1,,
477,1,0,051.jpg,268.598276207998,266.387182593997,269.130383194999,NaN,1,,
478,1,0,024.jpg,269.19698664,269.729015348999,270.028313080998,NaN,1,,
479,1,0,024.jpg,270.045114937999,270.577002982998,272.871677678999,NaN,0,,
480,1,0,056.jpg,272.888290788,273.419466187999,274.916768931998,NaN,1,,
481,1,0,028.jpg,274.933044707999,275.465564168,276.263490084999,NaN,1,,
482,1,0,028.jpg,276.280020968999,276.812588084998,276.912176751997,NaN,0,,
483,1,0,025.jpg,276.928735062,277.461019907998,277.760269103997,NaN,1,,
484,1,0,048.jpg,277.776994686999,278.308849252997,280.503071801999,NaN,1,,
485,1,0,018.jpg,280.520532724,281.051822851998,281.152082777997,NaN,1,,
486,1,0,059.jpg,281.168292666,281.051822851998,281.700723074999,NaN,1,,
487,1,0,046.jpg,281.716898905997,282.249542316,283.446747504,NaN,1,,
488,1,0,057.jpg,283.462980051998,283.995274721998,286.290113253999,NaN,1,,
489,1,0,020.jpg,286.306719499997,286.839045116998,288.335117084,NaN,1,,
490,1,0,020.jpg,288.351809884,288.883796733,290.081203040998,NaN,0,,
491,1,0,028.jpg,290.097675069999,290.628864811999,292.424891003997,NaN,1,,
492,1,0,028.jpg,292.442108700998,292.973971285999,294.470785098998,NaN,0,,
493,1,0,050.jpg,294.487420021,295.019480011997,297.513592274998,NaN,1,,
494,1,0,024.jpg,297.529998684997,298.062071732998,298.261748705998,NaN,1,,
495,1,0,053.jpg,298.295060344997,298.827124095998,300.922241828997,NaN,1,,
496,1,0,053.jpg,300.939169255998,301.470976020999,303.566257627997,NaN,0,,
497,1,0,023.jpg,303.582623744998,304.115064259997,306.509094239998,NaN,1,,
498,1,0,017.jpg,306.526881346999,307.058697070999,308.75379784,NaN,1,,
499,1,0,047.jpg,308.770533158,309.303067899,310.001042421998,NaN,1,,
500,1,0,058.jpg,310.017490230999,310.549865727997,311.846522946998,NaN,1,,
501,1,0,051.jpg,311.863139129,312.395219050999,313.592385985998,NaN,1,,
502,1,0,049.jpg,313.609005242997,314.124621917999,316.435704283998,NaN,1,,
503,1,0,026.jpg,316.452284442999,316.967861857,319.078596236999,NaN,1,,
504,1,0,027.jpg,319.095748240998,319.628140173998,321.223405686,NaN,1,,
505,1,0,056.jpg,321.240750290999,321.772132705999,323.668874856998,NaN,1,,
506,1,0,019.jpg,323.684918904997,324.200933530999,326.412712271998,NaN,1,,
507,1,0,019.jpg,326.427905306999,326.960799207998,327.859299112999,NaN,0,,
508,1,0,016.jpg,327.875358852998,328.407773945997,330.601790756999,NaN,1,,
509,1,0,021.jpg,330.617873219999,331.150291108999,332.348174485,NaN,1,,
510,1,0,054.jpg,332.364159916997,332.880810041999,335.090982523998,NaN,1,,
511,1,0,022.jpg,335.107676633997,335.640514502997,337.835419611998,NaN,1,,
512,1,0,052.jpg,337.851916391999,338.383937369999,338.782292625998,NaN,1,,
513,1,0,029.jpg,338.799306976998,339.331551845997,340.229599478997,NaN,1,,
514,1,0,060.jpg,340.246195783999,340.778059333999,341.077737793999,NaN,1,,
515,1,0,025.jpg,341.094216952999,341.626698591997,341.726012210998,NaN,1,,
516,1,0,030.jpg,341.742322529997,342.274884290997,342.374517771997,NaN,1,,
517,1,0,030.jpg,342.391201140999,342.922438733,343.421109740997,NaN,0,,
518,1,0,055.jpg,343.438023494,343.971110396997,345.567116164999,NaN,1,,
519,1,0,053.jpg,345.583744333999,346.115731709,347.911571526998,NaN,1,,
520,1,0,016.jpg,347.928124599999,348.460352434999,350.754193509998,NaN,1,,
521,1,0,056.jpg,350.771268204997,351.303385291998,352.600544892997,NaN,1,,
522,1,0,028.jpg,352.617311909999,353.149280154998,354.944138002,NaN,1,,
523,1,0,052.jpg,354.961240043998,355.493635927,356.591065385997,NaN,1,,
524,1,0,018.jpg,356.607772961997,357.140245095998,357.440163354997,NaN,1,,
525,1,0,026.jpg,357.455625101997,357.987206042999,360.182189081999,NaN,1,,
526,1,0,054.jpg,360.198282077999,360.714690108998,361.52947713,NaN,1,,
527,1,0,049.jpg,361.545933767,362.078243701999,364.172174993997,NaN,1,,
528,1,0,017.jpg,364.189223794998,364.720787193997,365.519675615997,NaN,1,,
529,1,0,019.jpg,365.536451336997,366.068647005999,366.368063242997,NaN,1,,
530,1,0,021.jpg,366.384626273997,366.916360699997,368.113979173999,NaN,1,,
531,1,0,029.jpg,368.130486567999,368.662598135998,370.458550158997,NaN,1,,
532,1,0,030.jpg,370.476072636,371.007393903998,372.503537221997,NaN,1,,
533,1,0,059.jpg,372.520734812999,373.052464629,373.551041596998,NaN,1,,
534,1,0,060.jpg,373.567997268998,374.099862974999,375.496445809997,NaN,1,,
535,1,0,022.jpg,375.514240098997,376.045504308,376.743627566997,NaN,1,,
536,1,0,027.jpg,376.760263242999,377.292291692,378.089666369,NaN,1,,
537,1,0,051.jpg,378.107994271999,378.639203832998,379.836106775998,NaN,1,,
538,1,0,020.jpg,379.852613913998,380.385280028,381.282844407,NaN,1,,
539,1,0,020.jpg,381.299465577998,381.831643721998,384.326022744997,NaN,0,,
540,1,0,057.jpg,384.342034031997,384.857716298,386.870739645998,NaN,1,,
541,1,0,023.jpg,386.886208120999,387.418702014998,389.314690292998,NaN,1,,
542,1,0,025.jpg,389.331471271998,389.862704609997,391.259323356,NaN,1,,
543,1,0,025.jpg,391.275267072,391.807909947998,394.101940995999,NaN,0,,
544,1,0,055.jpg,394.119234914,394.635026538999,396.746518961998,NaN,1,,
545,1,0,058.jpg,396.763218423999,397.295402289998,398.691803954,NaN,1,,
546,1,0,050.jpg,398.708390363998,399.240617220999,399.840227592998,NaN,1,,
547,1,0,024.jpg,399.855826636998,400.387960930999,401.984034259,NaN,1,,
548,1,0,048.jpg,402.000781700997,402.533060130998,403.430283651,NaN,1,,
549,1,0,047.jpg,403.446921834999,403.978669373999,405.875040894,NaN,1,,
550,1,0,046.jpg,405.891376889998,406.423688092997,408.817994825,NaN,1,,
551,1,0,022.jpg,408.835033062998,409.366957446,409.866622235997,NaN,1,,
552,1,0,047.jpg,409.882201437998,410.414461826997,411.811026754,NaN,1,,
553,1,0,047.jpg,411.827458699998,412.359957381999,414.255434821,NaN,0,,
554,1,0,025.jpg,414.271834750998,414.803917161997,416.400208558,NaN,1,,
555,1,0,053.jpg,416.415591063,416.932221195999,417.149195921997,NaN,1,,
556,1,0,053.jpg,417.166002325997,417.697309616997,418.096164765997,NaN,0,,
557,1,0,030.jpg,418.112681801998,418.644868099,419.941914524999,NaN,1,,
558,1,0,048.jpg,419.959358364998,420.490585219999,422.485809802998,NaN,1,,
559,1,0,020.jpg,422.502431743,423.034192059997,423.832559936,NaN,1,,
560,1,0,050.jpg,423.848589531997,424.381036645998,426.675754100997,NaN,1,,
561,1,0,050.jpg,426.692593213997,427.224871398997,428.620769024998,NaN,0,,
562,1,0,027.jpg,428.654646699997,429.186591984999,431.281747057998,NaN,1,,
563,1,0,019.jpg,431.298272741999,431.830267174999,433.725988151997,NaN,1,,
564,1,0,026.jpg,433.742321425998,434.274811741998,436.768700612,NaN,1,,
565,1,0,049.jpg,436.784972590998,437.317751942999,439.512236545997,NaN,1,,
566,1,0,017.jpg,439.527909011998,440.061279650999,440.959933880997,NaN,1,,
567,1,0,055.jpg,440.974877420998,441.491077635997,443.903076834999,NaN,1,,
568,1,0,023.jpg,443.918492921999,444.450927384998,446.844961330997,NaN,1,,
569,1,0,046.jpg,446.862722729998,447.393767576999,449.888094681999,NaN,1,,
570,1,0,021.jpg,449.904559813,450.436481268,451.434148501998,NaN,1,,
571,1,0,024.jpg,451.451316911,451.983196185,454.377401295998,NaN,1,,
572,1,0,052.jpg,454.393926923,454.926239485998,456.721682602998,NaN,1,,
573,1,0,056.jpg,456.738280074998,457.269426923998,458.866284052998,NaN,1,,
574,1,0,051.jpg,458.882955161997,459.414889403997,461.110963711999,NaN,1,,
575,1,0,018.jpg,461.127853709997,461.659884696997,462.358263244998,NaN,1,,
576,1,0,028.jpg,462.375195742999,462.907437059999,463.605547011997,NaN,1,,
577,1,0,016.jpg,463.621394187998,464.137521500998,464.238496376998,NaN,1,,
578,1,0,058.jpg,464.254543848998,464.786033741999,467.279973585999,NaN,1,,
579,1,0,057.jpg,467.296532225999,467.829147963999,470.223202637997,NaN,1,,
580,1,0,060.jpg,470.239792860997,470.772265418,472.667522319,NaN,1,,
581,1,0,029.jpg,472.683893509999,473.216265523999,474.812024692998,NaN,1,,
582,1,0,059.jpg,474.828596166997,475.361401913997,477.256731344998,NaN,1,,
583,1,0,059.jpg,477.273249087997,477.804917631998,478.603530488999,NaN,0,,
584,1,0,059.jpg,478.619313903997,479.135628983997,481.346789042,NaN,0,,
585,1,0,054.jpg,481.362945965,481.879082076997,482.693902650997,NaN,1,,
586,1,0,020.jpg,482.711241653997,483.242608877998,484.539779437,NaN,1,,
587,1,0,051.jpg,484.556238294997,485.088282400997,486.88403754,NaN,1,,
588,1,0,019.jpg,486.900339266998,487.433235266999,487.532428144998,NaN,1,,
589,1,0,019.jpg,487.548802828998,487.433235266999,488.081211635999,NaN,0,,
590,1,0,028.jpg,488.097737737997,488.629869646997,491.024289518999,NaN,1,,
591,1,0,058.jpg,491.040900401,491.571884756999,492.071081698999,NaN,1,,
592,1,0,024.jpg,492.088428947998,492.619888267,494.715312259999,NaN,1,,
593,1,0,046.jpg,494.73300181,495.264269560997,495.463695814,NaN,1,,
594,1,0,046.jpg,495.481480392998,496.012395064998,496.511339406999,NaN,0,,
595,1,0,052.jpg,496.527888905999,497.059941603999,497.658838545998,NaN,1,,
596,1,0,029.jpg,497.675151542,497.059941603999,498.207407730999,NaN,1,,
597,1,0,030.jpg,498.222969994,498.739837369998,500.352174282998,NaN,1,,
598,1,0,030.jpg,500.369961791999,500.901123459997,502.696751184998,NaN,0,,
599,1,0,021.jpg,502.713586538997,503.245875818,504.441491928999,NaN,1,,
600,1,0,056.jpg,504.458640543999,505.085939776,506.887134154,NaN,1,,
601,1,0,025.jpg,506.903362007997,507.435467996998,509.132694167998,NaN,1,,
602,1,0,059.jpg,509.148127228997,507.435467996998,509.679267097999,NaN,1,,
603,1,0,027.jpg,509.696865828999,510.212280333999,511.725361813998,NaN,1,,
604,1,0,060.jpg,511.741984695997,512.274166124997,513.970025777999,NaN,1,,
605,1,0,022.jpg,513.986290402998,514.518602191998,514.618910391,NaN,1,,
606,1,0,053.jpg,514.635112814998,515.167414736999,516.164939933999,NaN,1,,
607,1,0,053.jpg,516.181777399997,516.713698513999,518.109416321,NaN,0,,
608,1,0,055.jpg,518.126985388997,518.659302997999,520.554532394999,NaN,1,,
609,1,0,050.jpg,520.570933760999,521.103496688,523.497041955998,NaN,1,,
610,1,0,047.jpg,523.513989915999,524.046105005997,524.246077554999,NaN,1,,
611,1,0,026.jpg,524.262211018999,524.794655178997,527.287975691997,NaN,1,,
612,1,0,026.jpg,527.305209095997,527.837408124,529.03553904,NaN,0,,
613,1,0,017.jpg,529.051443459997,529.583605112999,529.883787384999,NaN,1,,
614,1,0,016.jpg,529.899193290999,530.431596859999,532.028638604999,NaN,1,,
615,1,0,049.jpg,532.044164955998,532.576211861997,534.771354772998,NaN,1,,
616,1,0,018.jpg,534.787773172997,535.319629231999,536.119039358997,NaN,1,,
617,1,0,057.jpg,536.134675083998,536.666666989997,536.965969713998,NaN,1,,
618,1,0,057.jpg,536.982503094998,537.514584673998,537.913647617999,NaN,0,,
619,1,0,048.jpg,537.930273381997,538.462434183999,539.160836407998,NaN,1,,
620,1,0,023.jpg,539.177391483998,538.462434183999,539.710348155997,NaN,1,,
621,1,0,054.jpg,539.726184062998,540.258452438,541.355394833998,NaN,1,,
622,1,0,019.jpg,541.371856999998,541.904027406999,543.400709963,NaN,1,,
623,1,0,026.jpg,543.417271864997,543.949722928999,545.247473005998,NaN,1,,
624,1,0,021.jpg,545.262864955999,545.795175128998,546.792294721999,NaN,1,,
625,1,0,030.jpg,546.809325372,547.341508125999,549.735991006997,NaN,1,,
626,1,0,050.jpg,549.752515397999,550.284593639997,550.683452367997,NaN,1,,
627,1,0,060.jpg,550.699735290997,551.232286981998,552.229617494999,NaN,1,,
628,1,0,060.jpg,552.247482720999,552.778599203997,554.176518480999,NaN,0,,
629,1,0,056.jpg,554.209063323997,554.740607653999,555.139660154,NaN,1,,
630,1,0,051.jpg,555.156445397999,555.688539981998,557.584007279998,NaN,1,,
631,1,0,018.jpg,557.600126172998,558.132420422,558.331482715999,NaN,1,,
632,1,0,057.jpg,558.347866784999,558.880411024998,560.377547819997,NaN,1,,
633,1,0,054.jpg,560.394010556,560.925437236998,562.921452486,NaN,1,,
634,1,0,028.jpg,562.937974950997,563.470176177998,564.767139521999,NaN,1,,
635,1,0,048.jpg,564.783496118998,565.315135237997,566.113805227997,NaN,1,,
636,1,0,047.jpg,566.131585345,566.661879554998,568.159116411,NaN,1,,
637,1,0,055.jpg,568.175812317997,568.707917904998,568.907411503998,NaN,1,,
638,1,0,016.jpg,568.923792756999,569.456054832997,569.656554960999,NaN,1,,
639,1,0,029.jpg,569.672061174999,569.456054832997,570.20436344,NaN,1,,
640,1,0,058.jpg,570.220877100997,570.752979686997,572.548262749999,NaN,1,,
641,1,0,020.jpg,572.565383884998,573.097682912998,573.496441976997,NaN,1,,
642,1,0,027.jpg,573.514019408998,574.045224518999,575.641516088999,NaN,1,,
643,1,0,053.jpg,575.674704539997,576.207035588999,578.700511675997,NaN,1,,
644,1,0,053.jpg,578.717609372998,579.249646452998,581.743758875997,NaN,0,,
645,1,0,052.jpg,581.776886765998,582.309319485998,583.905224193997,NaN,1,,
646,1,0,023.jpg,583.921200249999,584.437190302,586.050183529998,NaN,1,,
647,1,0,017.jpg,586.068019536,586.599212405999,588.095372765998,NaN,1,,
648,1,0,022.jpg,588.112195076999,588.643876877999,590.141602692998,NaN,1,,
649,1,0,059.jpg,590.157263005,590.689262340999,591.188071181998,NaN,1,,
650,1,0,024.jpg,591.204652236,591.736865663999,593.431793737,NaN,1,,
651,1,0,049.jpg,593.449499826998,593.964925749999,594.082283762,NaN,1,,
652,1,0,046.jpg,594.097881322999,594.630262954997,596.226415184999,NaN,1,,
653,1,0,025.jpg,596.242377478997,596.774731162997,598.072954732997,NaN,1,,
654,1,0,055.jpg,598.089399752,596.774731162997,598.619549744999,NaN,1,,
655,1,0,019.jpg,598.637153148997,599.152970044997,599.369993828997,NaN,1,,
656,1,0,016.jpg,599.385415851997,599.901179531997,600.915276451997,NaN,1,,
657,1,0,059.jpg,600.931864743998,601.464170240997,603.758519243998,NaN,1,,
658,1,0,058.jpg,603.775252832998,604.307174386999,606.202746700998,NaN,1,,
659,1,0,021.jpg,606.236055863999,606.768065952998,607.567269804,NaN,1,,
660,1,0,048.jpg,607.582636212999,608.114511570999,609.413103342999,NaN,1,,
661,1,0,056.jpg,609.429589977997,609.960814370999,611.655752555998,NaN,1,,
662,1,0,030.jpg,611.673096382998,612.205273918997,612.904476471998,NaN,1,,
663,1,0,028.jpg,612.920269945997,613.452629739997,614.150919696,NaN,1,,
664,1,0,025.jpg,614.167242763997,614.699644136999,615.09932763,NaN,1,,
665,1,0,047.jpg,615.114409836999,615.647410998998,618.141201011,NaN,1,,
666,1,0,027.jpg,618.157902711999,618.688929414999,618.788713538997,NaN,1,,
667,1,0,023.jpg,618.806266580999,619.321821043999,620.037950864997,NaN,1,,
668,1,0,046.jpg,620.053368645,620.585421922999,622.381205473997,NaN,1,,
669,1,0,018.jpg,622.398155653998,622.930260126999,624.327783164998,NaN,1,,
670,1,0,024.jpg,624.343184647998,624.875883359,625.274469582997,NaN,1,,
671,1,0,020.jpg,625.291100686998,625.823317847,627.419144345,NaN,1,,
672,1,0,017.jpg,627.435234375,627.966911848998,628.566628590997,NaN,1,,
673,1,0,029.jpg,628.583320330999,629.115667258997,630.113163456997,NaN,1,,
674,1,0,051.jpg,630.130591768997,630.661830425997,631.359417243999,NaN,1,,
675,1,0,051.jpg,631.37649689,631.908975891998,634.302843063997,NaN,0,,
676,1,0,049.jpg,634.319863500998,634.851641297999,635.250163318,NaN,1,,
677,1,0,049.jpg,635.267224327999,635.799665593,638.094262414998,NaN,0,,
678,1,0,052.jpg,638.110837292999,638.642986871997,639.939821117998,NaN,1,,
679,1,0,022.jpg,639.956413418,640.472093433,640.887582331998,NaN,1,,
680,1,0,050.jpg,640.904182656999,640.472093433,641.435779927,NaN,1,,
681,1,0,053.jpg,641.453259320999,641.984881688997,642.882881898997,NaN,1,,
682,1,0,054.jpg,642.899501344997,643.431758030998,644.329324062997,NaN,1,,
683,1,0,060.jpg,644.345496672999,644.877081492999,645.777086825998,NaN,1,,
684,1,0,057.jpg,645.792227716,646.325093146999,648.817912197999,NaN,1,,
685,1,0,026.jpg,648.835007811998,649.367602713999,649.468637269998,NaN,1,,
686,1,0,049.jpg,649.484143145997,650.016046527999,652.410533397,NaN,1,,
687,1,0,027.jpg,652.427187861998,652.959259451,654.953794218,NaN,1,,
688,1,0,056.jpg,654.971142152997,655.503145776998,657.797818362997,NaN,1,,
689,1,0,056.jpg,657.814368398998,658.346525456,658.945124465998,NaN,0,,
690,1,0,025.jpg,658.961737352998,659.476658984,661.988171571997,NaN,1,,
691,1,0,018.jpg,662.004590752,662.536700219,663.035394506998,NaN,1,,
692,1,0,018.jpg,663.052096399999,663.583752372997,665.378907568,NaN,0,,
693,1,0,057.jpg,665.397723664999,665.928444835998,667.125912113999,NaN,1,,
694,1,0,016.jpg,667.141952749,667.674476519998,668.970472645,NaN,1,,
695,1,0,054.jpg,668.987497603997,669.503431106998,671.016097147,NaN,1,,
696,1,0,054.jpg,671.032331388,671.565451312999,673.860008126998,NaN,0,,
697,1,0,048.jpg,673.876453813999,674.408896264998,676.403940998,NaN,1,,
698,1,0,048.jpg,676.420605476997,676.952758249998,679.247267243998,NaN,0,,
699,1,0,021.jpg,679.263380865999,679.795873366998,682.291178915999,NaN,1,,
700,1,0,046.jpg,682.306606479997,682.839023683999,683.039174261998,NaN,1,,
701,1,0,020.jpg,683.054258075997,683.587284547997,686.081083843997,NaN,1,,
702,1,0,058.jpg,686.097426944998,686.628900860997,689.124804080999,NaN,1,,
703,1,0,051.jpg,689.141564997997,689.672608485998,690.070762428997,NaN,1,,
704,1,0,029.jpg,690.105708450999,690.636150877999,692.632243802997,NaN,1,,
705,1,0,028.jpg,692.649047264997,693.181101119997,694.378548861998,NaN,1,,
706,1,0,023.jpg,694.394450980999,694.926182650997,697.422207616997,NaN,1,,
707,1,0,053.jpg,697.437815642999,697.969841675,699.166356228998,NaN,1,,
708,1,0,026.jpg,699.183469689,699.715580602999,700.31395584,NaN,1,,
709,1,0,050.jpg,700.330474953997,700.862893562,703.357097557997,NaN,1,,
710,1,0,030.jpg,703.373607853999,703.905929110999,704.004511644998,NaN,1,,
711,1,0,060.jpg,704.021139771998,704.537530931997,706.349326242998,NaN,1,,
712,1,0,022.jpg,706.365842804,706.897539655998,707.796639995999,NaN,1,,
713,1,0,017.jpg,707.813700789997,708.345576358999,708.543841425999,NaN,1,,
714,1,0,052.jpg,708.561622028999,709.093070953997,710.490171407997,NaN,1,,
715,1,0,055.jpg,710.506446239997,711.022585432998,712.634409818998,NaN,1,,
716,1,0,047.jpg,712.651115326997,713.182856662999,713.481933439998,NaN,1,,
717,1,0,019.jpg,713.565832636999,714.098365181999,715.195989414999,NaN,1,,
718,1,0,024.jpg,715.212374524999,715.744793802998,718.039067030997,NaN,1,,
719,1,0,059.jpg,718.055814208998,718.587728779999,720.383527307,NaN,1,,
720,1,0,023.jpg,720.400828897,720.932120165999,722.029661195,NaN,1,,
721,1,0,026.jpg,722.046403374999,722.577389634,724.174644098999,NaN,1,,
722,1,0,028.jpg,724.192427394999,724.723316216998,726.718614698999,NaN,1,,
723,1,0,055.jpg,726.736515282999,727.267076845998,727.766019917999,NaN,1,,
724,1,0,055.jpg,727.781858128998,728.297985779998,730.509673585999,NaN,0,,
725,1,0,052.jpg,730.526611734,731.058574750998,733.551342678998,NaN,1,,
726,1,0,019.jpg,733.569109233998,734.101178175999,734.798998653998,NaN,1,,
727,1,0,029.jpg,734.815261067997,735.348233506,736.445765253,NaN,1,,
728,1,0,020.jpg,736.462417407998,736.994406010999,738.093047474998,NaN,1,,
729,1,0,056.jpg,738.125128484,738.657110339998,739.056303734,NaN,1,,
730,1,0,058.jpg,739.072899461,739.605004424997,740.003945906999,NaN,1,,
731,1,0,049.jpg,740.020839945999,740.552281259999,741.551493923998,NaN,1,,
732,1,0,018.jpg,741.583676247999,742.115698993999,744.310475077,NaN,1,,
733,1,0,022.jpg,744.328323868998,744.859192829997,745.657097371997,NaN,1,,
734,1,0,048.jpg,745.673952492998,744.859192829997,746.205973412998,NaN,1,,
735,1,0,059.jpg,746.223772869998,746.754916561,747.054034656998,NaN,1,,
736,1,0,027.jpg,747.070638538,747.602864093999,750.097021824997,NaN,1,,
737,1,0,017.jpg,750.113623110999,750.645529991998,750.845346189999,NaN,1,,
738,1,0,030.jpg,750.861715430998,751.393788068999,753.488833998999,NaN,1,,
739,1,0,030.jpg,753.505687422999,754.037678310997,755.633896892999,NaN,0,,
740,1,0,057.jpg,755.650377942999,756.182618392999,757.278717527999,NaN,1,,
741,1,0,060.jpg,757.296196560997,757.828691540999,760.023107582998,NaN,1,,
742,1,0,024.jpg,760.040139547997,760.572479005998,762.467690349997,NaN,1,,
743,1,0,047.jpg,762.484297442999,763.017378302997,764.013158647998,NaN,1,,
744,1,0,046.jpg,764.030667035,764.562328274998,765.060407331999,NaN,1,,
745,1,0,025.jpg,765.078312097998,765.610585822,766.209169856,NaN,1,,
746,1,0,051.jpg,766.274433792998,766.790719187,768.204161793998,NaN,1,,
747,1,0,053.jpg,768.237569640998,766.790719187,768.769577854,NaN,1,,
748,1,0,053.jpg,768.786211064998,769.318588549999,771.713624386997,NaN,0,,
749,1,0,053.jpg,771.729280545998,772.261355580998,774.356445234,NaN,0,,
750,1,0,050.jpg,774.372859665,774.905234190999,776.302085173,NaN,1,,
751,1,0,021.jpg,776.318473732998,776.850304914999,778.945470953997,NaN,1,,
752,1,0,054.jpg,778.961290094998,779.494188089,780.890921891998,NaN,1,,
753,1,0,016.jpg,780.907539240998,781.439735722997,782.936103697997,NaN,1,,
754,1,0,050.jpg,782.952386489997,783.484910788,785.081130592,NaN,1,,
755,1,0,021.jpg,785.097659668998,785.629881100998,787.027594480998,NaN,1,,
756,1,0,059.jpg,787.043077343998,787.574664929998,788.872155988,NaN,1,,
757,1,0,049.jpg,788.888301340998,789.421137982998,789.919405827997,NaN,1,,
758,1,0,052.jpg,789.936249016999,790.468326124999,790.766976372997,NaN,1,,
759,1,0,019.jpg,790.783999624,791.299156765999,792.214513572999,NaN,1,,
760,1,0,055.jpg,792.230966630999,792.763122222997,793.460796216998,NaN,1,,
761,1,0,060.jpg,793.479027341997,794.010388925999,794.808311055,NaN,1,,
762,1,0,056.jpg,794.824071578998,795.357229534999,795.65719256,NaN,1,,
763,1,0,017.jpg,795.672799576998,796.204633789999,797.800419821,NaN,1,,
764,1,0,020.jpg,797.818717355,798.350118454997,800.145439451,NaN,1,,
765,1,0,023.jpg,800.179764744,800.711288388,800.911521709997,NaN,1,,
766,1,0,057.jpg,800.928033167998,801.459253543999,801.558870550998,NaN,1,,
767,1,0,024.jpg,801.592394509,802.124216998,803.122825199,NaN,1,,
768,1,0,022.jpg,803.138462449999,803.670156168999,805.367576241999,NaN,1,,
769,1,0,048.jpg,805.383037391999,805.916146315998,806.114806245998,NaN,1,,
770,1,0,030.jpg,806.131343745998,806.646977053999,808.858459906998,NaN,1,,
771,1,0,016.jpg,808.874665296,809.407212517999,810.704891477999,NaN,1,,
772,1,0,058.jpg,810.719943736,811.253018130999,812.050548163999,NaN,1,,
773,1,0,025.jpg,812.067414997997,812.599713216998,813.596184628997,NaN,1,,
774,1,0,025.jpg,813.613213273999,814.145945627999,816.440534211997,NaN,0,,
775,1,0,028.jpg,816.456825226,816.989265875,819.283932425999,NaN,1,,
776,1,0,047.jpg,819.300568605999,819.832596278997,822.226891328999,NaN,1,,
777,1,0,046.jpg,822.243433352,822.77570685,823.473824164997,NaN,1,,
778,1,0,027.jpg,823.490410413,824.022566273998,824.221943610999,NaN,1,,
779,1,0,027.jpg,824.238020498,824.754184415,827.165270697998,NaN,0,,
780,1,0,018.jpg,827.181779718998,827.713995899998,828.811312064998,NaN,1,,
781,1,0,051.jpg,828.827979993999,829.360176267997,830.956371536999,NaN,1,,
782,1,0,029.jpg,830.972880202997,831.488326315997,833.101472801998,NaN,1,,
783,1,0,054.jpg,833.118139492999,833.649944686,834.048295621997,NaN,1,,
784,1,0,053.jpg,834.064902196998,834.597746543997,835.594930400999,NaN,1,,
785,1,0,026.jpg,835.611112645998,836.144181586998,838.437798258998,NaN,1,,
786,1,0,027.jpg,838.454930878997,838.987082538999,839.686729556997,NaN,1,,
787,1,0,018.jpg,839.703471725999,840.233943343999,841.830608529999,NaN,1,,
788,1,0,051.jpg,841.848417048997,842.379411717997,843.476775662999,NaN,1,,
789,1,0,047.jpg,843.493072670997,844.025438877998,844.225161351998,NaN,1,,
790,1,0,029.jpg,844.241691482999,844.773660200997,845.272500786999,NaN,1,,
791,1,0,025.jpg,845.288759837997,845.804793985997,847.219110726997,NaN,1,,
792,1,0,022.jpg,847.234545544998,847.766824217997,848.564803287998,NaN,1,,
793,1,0,026.jpg,848.581448517998,849.113474661997,850.011411477997,NaN,1,,
794,1,0,030.jpg,850.027834810997,850.560258006997,850.659883028999,NaN,1,,
795,1,0,050.jpg,850.676306955997,851.208597426998,853.503418491,NaN,1,,
796,1,0,057.jpg,853.519457869999,854.052598877999,855.748123310997,NaN,1,,
797,1,0,057.jpg,855.764523157999,856.296732088998,856.795438301997,NaN,0,,
798,1,0,055.jpg,856.812266478999,857.344040011998,858.342622441,NaN,1,,
799,1,0,016.jpg,858.358940180999,858.890938066997,860.386965652,NaN,1,,
800,1,0,048.jpg,860.403585018998,860.935565546999,862.831128170998,NaN,1,,
801,1,0,048.jpg,862.847819952,863.379347962,864.578252660998,NaN,0,,
802,1,0,058.jpg,864.594716284999,865.124701695997,867.020251852999,NaN,1,,
803,1,0,056.jpg,867.054410704997,867.586692530997,868.584289882998,NaN,1,,
804,1,0,020.jpg,868.600819571999,869.132928670999,871.128365475997,NaN,1,,
805,1,0,052.jpg,871.145150090997,871.676883466,873.372970854998,NaN,1,,
806,1,0,052.jpg,873.389581588999,873.921745958,875.318408430998,NaN,0,,
807,1,0,021.jpg,875.335082370999,875.867196815998,876.166368506998,NaN,1,,
808,1,0,059.jpg,876.182918148999,876.715010791999,876.814020116999,NaN,1,,
809,1,0,028.jpg,876.831483151,877.363424159998,878.959747884997,NaN,1,,
810,1,0,024.jpg,878.976493241997,879.508794267,880.805540641999,NaN,1,,
811,1,0,019.jpg,880.822805865999,879.508794267,881.354228021999,NaN,1,,
812,1,0,023.jpg,881.370786631,881.902845151999,883.098785718998,NaN,1,,
813,1,0,046.jpg,883.116031008998,883.648927041999,886.143958935998,NaN,1,,
814,1,0,049.jpg,886.159534432998,886.691638699998,888.986440261997,NaN,1,,
815,1,0,049.jpg,889.002893282999,889.534469421997,891.729161689,NaN,0,,
816,1,0,054.jpg,891.746366018997,892.278454759999,893.375781582999,NaN,1,,
817,1,0,060.jpg,893.392229115998,893.924500138997,895.322392869999,NaN,1,,
818,1,0,017.jpg,895.337822964997,895.870219331999,896.069446248999,NaN,1,,
819,1,0,053.jpg,896.086071551999,896.618060137,897.117011245999,NaN,1,,
820,1,0,053.jpg,897.133598952998,897.665662703999,898.962946238997,NaN,0,,
821,1,0,053.jpg,898.978882801999,899.511367570998,901.605320464998,NaN,0,,
822,1,0,059.jpg,901.623006127,902.155099683998,902.653991081999,NaN,1,,
823,1,0,049.jpg,902.670530377,903.202951837997,905.397469983,NaN,1,,
