Trial,nBack,Valence,Image,imagePresentationTime,NoisePresentationTime,x,RT,Accuracy,experiment,Clock,dataOneMinPress
1,1,1,4611.jpg,0.0124997279999661,0.677385009999853,2.6398845870026,NaN,1,0,,
2,1,1,5622.jpg,2.65629710700159,3.2884716869994,4.08628942699943,NaN,1,0,,
3,1,1,7350.jpg,4.10293181100133,4.7347382959997,7.62830319800196,NaN,1,0,,
4,1,1,5628.jpg,7.64422980900054,8.27654206599982,10.8702950430015,NaN,1,0,,
5,1,1,7460.jpg,10.886986321002,11.5186546460027,12.8155587340007,NaN,1,0,,
6,1,1,2240.jpg,12.8325641800002,13.4639844430021,15.4597504660014,NaN,1,0,,
7,1,1,1720.jpg,15.4761937690018,16.1077583469996,19.1005516950027,NaN,1,0,,
8,1,1,7330.jpg,19.1172243830006,19.7490323230013,22.1437676580026,NaN,1,0,,
9,1,1,4531.jpg,22.1600222090019,22.7923159109996,25.4861840890007,NaN,1,0,,
10,1,1,4656.jpg,25.5025279300025,26.1344600090015,27.8304904830002,NaN,1,0,,
11,1,1,4656.jpg,27.8470850369995,28.4787505860004,30.2746144730008,NaN,0,0,,
12,1,1,5270.jpg,30.2914242330007,30.9231334489996,32.9181795380027,NaN,1,0,,
13,1,1,4534.jpg,32.9352426810001,33.566878544003,34.863955801,NaN,1,0,,
14,1,1,7402.jpg,34.8803163560005,35.5121638439996,37.9066095510025,NaN,1,0,,
15,1,1,4651.jpg,37.9228428269998,38.5551439570008,40.4509054170012,NaN,1,0,,
16,1,1,4608.jpg,40.4671948940013,41.0991790070002,43.294043291,NaN,1,0,,
17,1,1,7230.jpg,43.3105548010026,43.9422746090022,45.3392052620002,NaN,1,0,,
18,1,1,7230.jpg,45.3557596089995,45.9871229400014,46.9852576840021,NaN,0,0,,
19,1,1,7430.jpg,47.0019652770025,47.6336449299997,49.4295864770029,NaN,1,0,,
20,1,1,4640.jpg,49.4461285470024,50.0771619450024,51.5746559370018,NaN,1,0,,
21,1,1,4653.jpg,51.5910603820012,52.2226680340027,54.7171876020002,NaN,1,0,,
22,1,1,7340.jpg,54.7336809240005,55.3654984620007,57.8597031540012,NaN,1,0,,
23,1,1,7351.jpg,57.8764121150016,58.5080832519998,60.8026757780026,NaN,1,0,,
24,1,1,7351.jpg,60.8195063150015,61.4512451390001,62.4487679640006,NaN,0,0,,
25,1,1,7450.jpg,62.4644636209996,63.097001514001,63.7954878840028,NaN,1,0,,
26,1,1,4651.jpg,63.8121950429995,64.4443153960019,66.4394938510013,NaN,1,0,,
27,1,1,4651.jpg,66.4562876090022,67.0879351340009,68.4842394360021,NaN,0,0,,
28,1,1,4651.jpg,68.5008359599997,69.1328385080014,72.0262026439996,NaN,0,0,,
29,1,1,4608.jpg,72.0427400610024,72.6737950410024,75.6666813030024,NaN,1,0,,
30,1,1,4608.jpg,75.6832813569999,76.3149360220013,77.6132221820008,NaN,0,0,,
31,1,1,7350.jpg,77.6299628880006,78.2614525370009,80.8556640910028,NaN,1,0,,
32,1,1,5270.jpg,80.8719819610014,81.5038828899997,84.2973343230005,NaN,1,0,,
33,1,1,4611.jpg,84.3140639230005,84.9457047370015,87.0408105429997,NaN,1,0,,
34,1,1,4611.jpg,87.0574887520015,87.6890757399997,90.4828151200018,NaN,0,0,,
35,1,1,7450.jpg,90.4993479450022,91.1310440170018,94.0243070720026,NaN,1,0,,
36,1,1,5622.jpg,94.0410040780007,94.6728477920005,96.6680428360014,NaN,1,0,,
37,1,1,4656.jpg,96.6848403110016,97.3165036980026,99.7112399230027,NaN,1,0,,
38,1,1,4640.jpg,99.7275293679995,100.359087504003,102.354647798002,NaN,1,0,,
39,1,1,1720.jpg,102.371394221002,103.003032725002,103.701768482002,NaN,1,0,,
40,1,1,2240.jpg,103.718278161003,104.350311821003,106.046018893001,NaN,1,0,,
41,1,1,7330.jpg,106.062726878001,106.694312922002,108.889594938002,NaN,1,0,,
42,1,1,4653.jpg,108.905892625,109.537527478002,111.43333987,NaN,1,0,,
43,1,1,7430.jpg,111.450066986999,112.081675211,113.578292180002,NaN,1,0,,
44,1,1,7460.jpg,113.594982552,114.227038986002,117.120151382001,NaN,1,0,,
45,1,1,7230.jpg,117.136686927002,117.768256885,120.362392333001,NaN,1,0,,
46,1,1,7402.jpg,120.379169283002,121.010981246,123.704323549002,NaN,1,0,,
47,1,1,7351.jpg,123.721351325003,124.352785582003,125.849373001001,NaN,1,0,,
48,1,1,4531.jpg,125.866132583,126.497588562001,128.592888605002,NaN,1,0,,
49,1,1,4531.jpg,128.609842540001,129.240880317,131.935304324001,NaN,0,0,,
50,1,1,4534.jpg,131.951692421,132.583588056001,135.475715570999,NaN,1,0,,
51,1,1,5628.jpg,135.493292651001,136.125068671001,138.419988728001,NaN,1,0,,
52,1,1,7340.jpg,138.436315256,139.067920005,140.165382259001,NaN,1,0,,
53,1,1,4653.jpg,140.181993859002,140.813646702001,143.008662063003,NaN,1,0,,
54,1,1,7450.jpg,143.025050589,143.656548182,144.455025968,NaN,1,0,,
55,1,1,7450.jpg,144.47126957,145.103842574001,146.700072618001,NaN,0,0,,
56,1,1,4640.jpg,146.716609772,147.348909388002,149.642323738,NaN,1,0,,
57,1,1,7402.jpg,149.659831854002,150.290793907003,153.184164104001,NaN,1,0,,
58,1,1,4608.jpg,153.201436883002,153.833672582001,156.427293338002,NaN,1,0,,
59,1,1,5622.jpg,156.444034608001,157.075676030003,158.871828618001,NaN,1,0,,
60,1,1,7330.jpg,158.888154854001,159.519805093001,162.014101017001,NaN,1,0,,
61,1,1,2240.jpg,162.030866964,162.662552502999,164.358598076,NaN,1,0,,
62,1,1,5270.jpg,164.375022200002,165.007144077001,167.999871052001,NaN,1,0,,
63,1,1,4531.jpg,168.016991936001,168.648703401002,171.641306742,NaN,1,0,,
64,1,1,4611.jpg,171.658239957,172.289716766001,174.983588519,NaN,1,0,,
65,1,1,7351.jpg,175.000429577001,175.632084465,177.228319797003,NaN,1,0,,
66,1,1,7430.jpg,177.245296197001,177.876938401001,179.572634627002,NaN,1,0,,
67,1,1,1720.jpg,179.589314110002,180.221414287,181.4186032,NaN,1,0,,
68,1,1,5628.jpg,181.434919384999,182.066677381001,184.56113215,NaN,1,0,,
69,1,1,5628.jpg,184.577586878,185.209318661,188.002163145,NaN,0,0,,
70,1,1,7350.jpg,188.052559080003,188.684462083002,191.478050809001,NaN,1,0,,
71,1,1,7350.jpg,191.494742116,192.126738811003,194.121961166002,NaN,0,0,,
72,1,1,4651.jpg,194.187770447003,194.820139107,196.915188678002,NaN,1,0,,
73,1,1,7230.jpg,196.931901638,197.563396381,198.561230181,NaN,1,0,,
74,1,1,7460.jpg,198.578148403001,199.209587500001,202.002743951001,NaN,1,0,,
75,1,1,4534.jpg,202.019876759001,202.651856273002,204.347466001,NaN,1,0,,
76,1,1,4656.jpg,204.364200979002,204.995737348003,206.093643989003,NaN,1,0,,
77,1,1,7340.jpg,206.110403463001,206.742032859001,209.535726278002,NaN,1,0,,
78,1,1,5628.jpg,209.552259162003,210.183858014003,212.678263001002,NaN,1,0,,
79,1,1,5628.jpg,212.695012083001,213.326098121001,216.119794488,NaN,0,0,,
80,1,1,7230.jpg,216.136647341002,216.768387914002,218.065415343,NaN,1,0,,
81,1,1,7230.jpg,218.082218408003,218.713811877002,221.008481247001,NaN,0,0,,
82,1,1,4534.jpg,221.025246585999,221.656303591,223.851694643003,NaN,1,0,,
83,1,1,4531.jpg,223.868086555001,224.500011194003,225.397111485003,NaN,1,0,,
84,1,1,4651.jpg,225.413734595,226.046332255002,227.642727253002,NaN,1,0,,
85,1,1,7450.jpg,227.659288823001,228.29123803,229.588258697,NaN,1,0,,
86,1,1,5270.jpg,229.604851603002,230.236425478,232.631022047,NaN,1,0,,
87,1,1,4656.jpg,232.647886895,233.279503556001,234.576531276001,NaN,1,0,,
88,1,1,4656.jpg,234.593130567002,235.22510394,238.018451163,NaN,0,0,,
89,1,1,7350.jpg,238.034887455,238.667155368003,241.260932903002,NaN,1,0,,
90,1,1,4640.jpg,241.276842533,241.908535949002,243.505549441001,NaN,1,0,,
91,1,1,7340.jpg,243.5209445,244.153667174,245.949189187002,NaN,1,0,,
92,1,1,2240.jpg,245.966270617002,246.597693162003,248.892657156,NaN,1,0,,
93,1,1,7330.jpg,248.909511022001,249.541314841001,252.234859380002,NaN,1,0,,
94,1,1,7460.jpg,252.251422999001,252.883289308,254.978557176,NaN,1,0,,
95,1,1,7402.jpg,254.994197058,255.627007554001,257.622155053003,NaN,1,0,,
96,1,1,7351.jpg,257.655108811003,258.287274021,259.684128211,NaN,1,0,,
97,1,1,5622.jpg,259.717125972002,260.348835295001,262.0451159,NaN,1,0,,
98,1,1,1720.jpg,262.061727273001,262.693739620001,265.087850740001,NaN,1,0,,
99,1,1,4608.jpg,265.120884327,265.753050615,268.546344516002,NaN,1,0,,
100,1,1,7430.jpg,268.563056972002,269.194508887002,271.589405787003,NaN,1,0,,
101,1,1,4653.jpg,271.622200080001,272.254133901002,272.952501686003,NaN,1,0,,
102,1,1,4611.jpg,272.968806574001,273.600906787,275.895815128002,NaN,1,0,,
103,1,1,7330.jpg,275.911439785003,276.544353729001,278.240390393999,NaN,1,0,,
104,1,1,4531.jpg,278.25676231,278.888869757,280.584815709,NaN,1,0,,
105,1,1,7340.jpg,280.601168927002,281.233170890002,282.131095787001,NaN,1,0,,
106,1,1,7350.jpg,282.147615696002,282.779554096,285.373448395003,NaN,1,0,,
107,1,1,7350.jpg,285.389046843,286.021655204,287.418296191001,NaN,0,0,,
108,1,1,4651.jpg,287.435220309002,288.066873293999,289.264265488,NaN,1,0,,
109,1,1,4653.jpg,289.280907317003,289.912854208,291.409061310002,NaN,1,0,,
110,1,1,7450.jpg,291.42591459,292.057563511,293.653772221001,NaN,1,0,,
111,1,1,7450.jpg,293.670318807002,294.301793640003,296.296846358,NaN,0,0,,
112,1,1,4608.jpg,296.313731387003,296.946120381002,298.941301603001,NaN,1,0,,
113,1,1,2240.jpg,298.958025056003,299.590003326,301.185574444,NaN,1,0,,
114,1,1,5270.jpg,301.203063547,301.834546670001,303.430970944002,NaN,1,0,,
115,1,1,4656.jpg,303.447252059002,304.079455290001,305.974813605,NaN,1,0,,
116,1,1,1720.jpg,305.991437349003,306.623505465002,308.818216531003,NaN,1,0,,
117,1,1,4611.jpg,308.834834928002,309.466856599,312.359630495001,NaN,1,0,,
118,1,1,7430.jpg,312.376554063001,313.009228832001,315.402778123,NaN,1,0,,
119,1,1,7460.jpg,315.418958851002,316.051164734999,317.646432575002,NaN,1,0,,
120,1,1,7230.jpg,317.680329118,318.312179267999,320.906078610002,NaN,1,0,,
121,1,1,4640.jpg,320.923010138002,321.555044796001,322.55359756,NaN,1,0,,
122,1,1,4534.jpg,322.585941211,323.217826328,324.015633852003,NaN,1,0,,
123,1,1,7351.jpg,324.032549895001,324.664460585002,325.562073431,NaN,1,0,,
124,1,1,5628.jpg,325.578028184002,326.211026803001,327.208176078002,NaN,1,0,,
125,1,1,5622.jpg,327.224639231001,327.85582841,329.253870816003,NaN,1,0,,
126,1,1,7402.jpg,329.269548363001,329.901555644003,331.299220050001,NaN,1,0,,
127,1,1,5628.jpg,331.315106090002,331.947295141003,332.645360835002,NaN,1,0,,
128,1,1,7450.jpg,332.663472998,333.293401794002,335.189292735002,NaN,1,0,,
129,1,1,7450.jpg,335.205904603001,335.838118792002,336.735647306003,NaN,0,0,,
130,1,1,7450.jpg,336.752363495001,337.384275265002,338.381952857002,NaN,0,0,,
131,1,1,1720.jpg,338.398554658001,339.030391718003,341.225962733002,NaN,1,0,,
132,1,1,2240.jpg,341.241582486,341.873486807002,344.567289813,NaN,1,0,,
133,1,1,7430.jpg,344.583906467,345.214458689003,348.209526505001,NaN,1,0,,
134,1,1,4653.jpg,348.242580124002,348.873589364001,350.869066851999,NaN,1,0,,
135,1,1,4534.jpg,350.885427867001,351.517555386003,354.510386835002,NaN,1,0,,
136,1,1,4534.jpg,354.528293168001,355.159231558002,357.153453559,NaN,0,0,,
137,1,1,7230.jpg,357.170468817003,357.803457369002,359.698288112002,NaN,1,0,,
138,1,1,7402.jpg,359.714830355002,360.346755663002,361.743461572001,NaN,1,0,,
139,1,1,7330.jpg,361.77669047,362.408423331002,364.104545406,NaN,1,0,,
140,1,1,4640.jpg,364.120749168,364.753386938002,366.548178599001,NaN,1,0,,
141,1,1,7350.jpg,366.565203218001,367.196993286001,367.995538421001,NaN,1,0,,
142,1,1,4531.jpg,368.029428141002,368.660811543999,371.453846529002,NaN,1,0,,
143,1,1,4608.jpg,371.470069468,372.102714721001,372.901371436001,NaN,1,0,,
144,1,1,7340.jpg,372.916649934999,373.548955807,375.245790673001,NaN,1,0,,
145,1,1,7340.jpg,375.262577402002,375.892623563002,378.487244438002,NaN,0,0,,
146,1,1,4656.jpg,378.503014246002,379.136021456001,380.732026362002,NaN,1,0,,
147,1,1,4651.jpg,380.765260613,381.396070789,383.493228478001,NaN,1,0,,
148,1,1,4611.jpg,383.508809630002,384.140693469002,386.734665724001,NaN,1,0,,
149,1,1,7460.jpg,386.751055615001,387.383083563,390.176711101001,NaN,1,0,,
150,1,1,7351.jpg,390.209675095,390.841983613002,393.734629825001,NaN,1,0,,
151,1,1,7351.jpg,393.752575760001,394.383301759,395.480660233003,NaN,0,0,,
152,1,1,5622.jpg,395.51298091,396.146031373002,397.442644326002,NaN,1,0,,
153,1,1,5270.jpg,397.475838251001,398.10812416,400.900480873002,NaN,1,0,,
154,1,1,5628.jpg,400.917185573002,401.549275609003,403.644802484003,NaN,1,0,,
155,1,1,4653.jpg,403.660749284001,404.276574748001,406.188613687002,NaN,1,0,,
156,1,1,7330.jpg,406.205437299002,406.837064556003,408.931966914002,NaN,1,0,,
157,1,1,7340.jpg,408.948645046003,409.580634754002,412.174497653003,NaN,1,0,,
158,1,1,4640.jpg,412.191090534001,412.822921212002,414.718521264,NaN,1,0,,
159,1,1,4640.jpg,414.735087672001,415.367063703001,416.464590754,NaN,0,0,,
160,1,1,4640.jpg,416.481097492,417.112819284001,418.808950897001,NaN,0,0,,
161,1,1,1720.jpg,418.825234025,419.457340535002,421.153437090001,NaN,1,0,,
162,1,1,4534.jpg,421.186662846001,421.818449366001,424.811473812002,NaN,1,0,,
163,1,1,5270.jpg,424.828347145001,425.460019034002,427.555883384,NaN,1,0,,
164,1,1,7351.jpg,427.572640364,428.203103033,430.497978421001,NaN,1,0,,
165,1,1,4656.jpg,430.514575573001,431.146510995,433.542004215,NaN,1,0,,
166,1,1,2240.jpg,433.575245055999,434.206026727003,435.702469777003,NaN,1,0,,
167,1,1,7230.jpg,435.718960013,436.350626566,438.24755634,NaN,1,0,,
168,1,1,7450.jpg,438.279713567001,438.911545562001,440.906750466002,NaN,1,0,,
169,1,1,4611.jpg,440.923346836,441.555244697,442.553093448001,NaN,1,0,,
170,1,1,5622.jpg,442.570486150002,443.201336224,445.19665962,NaN,1,0,,
171,1,1,5622.jpg,445.214480368002,445.845305891002,448.139780594,NaN,0,0,,
172,1,1,4531.jpg,448.156332336002,448.788509846003,450.484206136,NaN,1,0,,
173,1,1,7402.jpg,450.500824131002,451.133190249002,453.826132574002,NaN,1,0,,
174,1,1,4608.jpg,453.843251707,454.475115773002,456.869250179003,NaN,1,0,,
175,1,1,7460.jpg,456.902750985002,457.534251359,459.030676802002,NaN,1,0,,
176,1,1,4651.jpg,459.046935509999,459.679282571,461.375201813,NaN,1,0,,
177,1,1,7350.jpg,461.391995123002,462.024098824,463.619987269001,NaN,1,0,,
178,1,1,7430.jpg,463.653228000003,464.285462037002,466.780192348,NaN,1,0,,
179,1,1,5628.jpg,466.795734677002,467.427671755002,469.821949453002,NaN,1,0,,
180,1,1,7351.jpg,469.838646448003,470.471234637,472.166599959,NaN,1,0,,
181,1,1,4534.jpg,472.183051377,472.815029765003,475.109573715003,NaN,1,0,,
182,1,1,7460.jpg,475.126084261003,475.758037630003,478.651223471003,NaN,1,0,,
183,1,1,4611.jpg,478.667779700001,479.299929950001,481.794814374,NaN,1,0,,
184,1,1,4640.jpg,481.810505642999,482.442503206999,484.736808109999,NaN,1,0,,
185,1,1,5622.jpg,484.770055934001,485.402150982001,486.299788250002,NaN,1,0,,
186,1,1,5622.jpg,486.316486738,486.948397053002,488.544107177,NaN,0,0,,
187,1,1,7402.jpg,488.561131052,489.193044665,491.288092730003,NaN,1,0,,
188,1,1,5270.jpg,491.304332501,491.936637514002,493.731672068003,NaN,1,0,,
189,1,1,7330.jpg,493.765100914999,494.397632103002,495.195663716,NaN,1,0,,
190,1,1,2240.jpg,495.212051742001,495.844033441001,497.04109422,NaN,1,0,,
191,1,1,7340.jpg,497.057838865003,497.689659362,500.383370661002,NaN,1,0,,
192,1,1,7340.jpg,500.399976012002,501.032029952003,501.730149808001,NaN,0,0,,
193,1,1,4653.jpg,501.763411167001,502.395286541003,505.089980199002,NaN,1,0,,
194,1,1,7350.jpg,505.106438328003,505.738407298002,506.535531124002,NaN,1,0,,
195,1,1,4531.jpg,506.552016591002,507.184016322,509.478570993,NaN,1,0,,
196,1,1,4531.jpg,509.495082354002,510.127044037003,512.022572501002,NaN,0,0,,
197,1,1,4531.jpg,512.039202470001,512.671280831,513.867706015,NaN,0,0,,
198,1,1,7230.jpg,513.885044382001,514.516707814,516.5119877,NaN,1,0,,
199,1,1,7450.jpg,516.528132777003,517.160553116002,518.058351243002,NaN,1,0,,
200,1,1,7450.jpg,518.074913140001,518.706848472,521.000406594001,NaN,0,0,,
201,1,1,1720.jpg,521.018113140002,521.649922896002,523.744838417002,NaN,1,0,,
202,1,1,4656.jpg,523.761670055002,524.393635479002,525.191585091001,NaN,1,0,,
203,1,1,4656.jpg,525.208210606001,525.839579285002,526.637980130999,NaN,0,0,,
204,1,1,7430.jpg,526.654620965001,527.286626325,528.285263718,NaN,1,0,,
205,1,1,4651.jpg,528.300895593002,528.932781131,529.63224332,NaN,1,0,,
206,1,1,4651.jpg,529.647689997,530.279518645002,531.97556074,NaN,0,0,,
207,1,1,4608.jpg,531.99170853,532.624779343001,535.217794476001,NaN,1,0,,
208,1,1,4531.jpg,535.235631839001,535.866588464,537.962525019,NaN,1,0,,
209,1,1,2240.jpg,537.978220295001,538.609814347001,540.505416166001,NaN,1,0,,
210,1,1,2240.jpg,540.521968604,541.153982371001,543.847668553,NaN,0,0,,
211,1,1,5622.jpg,543.863196171002,544.496101706001,545.393811036,NaN,1,0,,
212,1,1,4651.jpg,545.411625470002,546.042746882002,548.835788461001,NaN,1,0,,
213,1,1,4656.jpg,548.852421909,549.484328859002,550.381447693002,NaN,1,0,,
214,1,1,1720.jpg,550.398114781001,551.030685053,552.926058045003,NaN,1,0,,
215,1,1,5270.jpg,552.94272531,553.574574067999,554.573125408002,NaN,1,0,,
216,1,1,5628.jpg,554.587900382001,555.204007073,557.216106771,NaN,1,0,,
217,1,1,7230.jpg,557.231644445001,557.864748152002,558.56288356,NaN,1,0,,
218,1,1,7330.jpg,558.579377410002,559.211357005002,561.705138922,NaN,1,0,,
219,1,1,7351.jpg,561.722186088002,562.354009692001,565.047582769002,NaN,1,0,,
220,1,1,7402.jpg,565.063506030001,565.696298987001,568.589089205001,NaN,1,0,,
221,1,1,7350.jpg,568.605703276,569.237934805002,572.230685476003,NaN,1,0,,
222,1,1,7340.jpg,572.246511088,572.879331879001,574.775755023002,NaN,1,0,,
223,1,1,4534.jpg,574.807434675,575.439332941001,576.736699256002,NaN,1,0,,
224,1,1,4640.jpg,576.753269910001,577.385393727,578.282968568001,NaN,1,0,,
225,1,1,7460.jpg,578.299658719003,578.931755427002,580.826958139001,NaN,1,0,,
226,1,1,4653.jpg,580.843705994001,581.475567474001,583.570574353002,NaN,1,0,,
227,1,1,4653.jpg,583.588333229,584.219061171003,586.713094528001,NaN,0,0,,
228,1,1,4608.jpg,586.729330359001,587.345041564,588.161162545002,NaN,1,0,,
229,1,1,7450.jpg,588.175580573999,588.808342772001,591.003059877003,NaN,1,0,,
230,1,1,7450.jpg,591.019344307002,591.651786735001,593.547069189,NaN,0,0,,
231,1,1,4611.jpg,593.563739165002,594.195572537999,595.29286981,NaN,1,0,,
232,1,1,7430.jpg,595.309662121002,595.941495917999,598.834597305002,NaN,1,0,,
233,1,1,7230.jpg,598.851244955,599.483093189003,601.578215723002,NaN,1,0,,
1,1,1,7402.jpg,0.0124539110001933,0.644870234998962,3.43847480499971,NaN,1,1,,
2,1,1,7460.jpg,3.45500402899779,4.08701881600064,5.08471288899818,NaN,1,1,,
3,1,1,5270.jpg,5.10108770599982,5.73316767999859,6.53117036299955,NaN,1,1,,
4,1,1,4611.jpg,6.5480709830008,7.17975727399971,9.37447359199723,NaN,1,1,,
5,1,1,7340.jpg,9.39070362699931,10.0230744689979,10.9206246600006,NaN,1,1,,
6,1,1,4531.jpg,10.9374760850005,11.5694240179982,14.462560557,NaN,1,1,,
7,1,1,7430.jpg,14.4790037059975,15.1108653789997,17.5053582759974,NaN,1,1,,
8,1,1,4640.jpg,17.5218557089975,18.153638112999,19.6501912879976,NaN,1,1,,
9,1,1,2240.jpg,19.6668115989996,20.2985689630004,22.9925404969981,NaN,1,1,,
10,1,1,4653.jpg,23.0088032249987,23.6403805619993,25.7359360909977,NaN,1,1,,
11,1,1,7351.jpg,25.7527029949997,26.3842974599975,27.7812248339978,NaN,1,1,,
12,1,1,4656.jpg,27.7976427089998,28.429566767998,31.4223983829979,NaN,1,1,,
13,1,1,4656.jpg,31.439140167,32.0711230179986,34.5649176219995,NaN,0,1,,
14,1,1,5628.jpg,34.5817451049988,35.2135468659981,37.4082606109987,NaN,1,1,,
15,1,1,4534.jpg,37.4247337999986,38.0567756199998,39.6530046329972,NaN,1,1,,
16,1,1,1720.jpg,39.6696377419976,40.3014303130003,41.1994584950007,NaN,1,1,,
17,1,1,4608.jpg,41.2161436819988,41.8477549540003,43.144792174,NaN,1,1,,
18,1,1,7450.jpg,43.1616686540001,43.7934766020007,44.7909658319986,NaN,1,1,,
19,1,1,7350.jpg,44.8072267549978,45.439438434998,46.2376198380007,NaN,1,1,,
20,1,1,7230.jpg,46.2538645780005,46.8861677109999,49.7791581929996,NaN,1,1,,
21,1,1,4651.jpg,49.7956037199983,50.4276130849976,51.2258314200008,NaN,1,1,,
22,1,1,4651.jpg,51.2426042549996,51.8741548699982,52.5725491939993,NaN,0,1,,
23,1,1,7330.jpg,52.5893899010007,53.2208975930007,54.9171155529984,NaN,1,1,,
24,1,1,5622.jpg,54.9335599689985,55.5655720510003,56.5630719000001,NaN,1,1,,
25,1,1,4640.jpg,56.5800301300005,57.2114766819977,59.1063589240002,NaN,1,1,,
26,1,1,7450.jpg,59.1239297489992,59.7550128959992,61.3519781020004,NaN,1,1,,
27,1,1,7450.jpg,61.3687334789975,62.000337939,64.1940439229984,NaN,0,1,,
28,1,1,5622.jpg,64.2118699479979,64.8436430429974,67.8364931100004,NaN,1,1,,
29,1,1,7430.jpg,67.8531359480003,68.4851725659973,71.1789571659974,NaN,1,1,,
30,1,1,4531.jpg,71.1952390089973,71.8273833219973,72.7250601220003,NaN,1,1,,
31,1,1,7351.jpg,72.7418185969982,73.3736304679987,75.5685004659972,NaN,1,1,,
32,1,1,7340.jpg,75.5850502850008,76.2167611289988,78.0125152039982,NaN,1,1,,
33,1,1,5628.jpg,78.0293593969982,78.6610471620006,81.6541206429974,NaN,1,1,,
34,1,1,4608.jpg,81.6708986890008,82.3025213609981,84.2978735239994,NaN,1,1,,
35,1,1,1720.jpg,84.3144123109996,84.9461511369991,85.9440157239987,NaN,1,1,,
36,1,1,4534.jpg,85.9603162089988,86.5921098580002,87.9891789209978,NaN,1,1,,
37,1,1,5270.jpg,88.006055296999,88.6376626639976,91.5306262539998,NaN,1,1,,
38,1,1,7230.jpg,91.5475025929991,92.1792156869997,94.573612283999,NaN,1,1,,
39,1,1,2240.jpg,94.5902018729976,95.2216892109973,96.6189821709995,NaN,1,1,,
40,1,1,4611.jpg,96.6353210069974,97.2672924399994,99.8612230069994,NaN,1,1,,
41,1,1,4611.jpg,99.8778936449999,100.509276474,103.402720599999,NaN,0,1,,
42,1,1,7460.jpg,103.419635901999,104.051399893,106.545402617998,NaN,1,1,,
43,1,1,7350.jpg,106.562148782999,107.193882829,108.989841323,NaN,1,1,,
44,1,1,4653.jpg,109.006205387999,109.638284916,110.934986010998,NaN,1,1,,
45,1,1,7330.jpg,110.951733304999,111.583507456999,113.678406202998,NaN,1,1,,
46,1,1,4651.jpg,113.694951916998,114.326950840998,116.920880441998,NaN,1,1,,
47,1,1,7402.jpg,116.93762438,117.569588902999,119.664399028999,NaN,1,1,,
48,1,1,4656.jpg,119.681036025999,120.311926982999,121.909024883,NaN,1,1,,
49,1,1,4534.jpg,121.925026600999,122.557614134999,125.150576247997,NaN,1,1,,
50,1,1,4651.jpg,125.168126459997,125.799469753998,128.393871958,NaN,1,1,,
51,1,1,4656.jpg,128.410756167999,129.042510055999,129.740721794999,NaN,1,1,,
52,1,1,7450.jpg,129.75758207,130.388148976999,131.087564981997,NaN,1,1,,
53,1,1,5628.jpg,131.104089919998,131.736199061997,133.431869848999,NaN,1,1,,
54,1,1,5270.jpg,133.448691543999,134.080653378998,135.177915763001,NaN,1,1,,
55,1,1,4640.jpg,135.194367956999,135.82600995,138.220867802,NaN,1,1,,
56,1,1,7350.jpg,138.237414548999,138.868920500998,140.864379182,NaN,1,1,,
57,1,1,5622.jpg,140.880855595999,141.512925367999,143.906477417,NaN,1,1,,
58,1,1,4531.jpg,143.923798205,144.555817880999,145.353943067999,NaN,1,1,,
59,1,1,7351.jpg,145.370396618,146.002254708001,147.099806176,NaN,1,1,,
60,1,1,1720.jpg,147.116205638999,147.748269149997,148.745952137,NaN,1,1,,
61,1,1,2240.jpg,148.762400510001,149.393864989001,151.689021725,NaN,1,1,,
62,1,1,4611.jpg,151.704739817,152.337405345999,153.335309778999,NaN,1,1,,
63,1,1,4653.jpg,153.351770404999,153.983709820001,155.180586273,NaN,1,1,,
64,1,1,4608.jpg,155.196445188998,155.828899705,157.225892377999,NaN,1,1,,
65,1,1,7430.jpg,157.24266996,157.874283465,160.468337622999,NaN,1,1,,
66,1,1,7330.jpg,160.484930324998,161.116572454997,162.812574273001,NaN,1,1,,
67,1,1,7402.jpg,162.828452381,163.460165906999,165.256006344,NaN,1,1,,
68,1,1,7340.jpg,165.273479927,165.905332799997,168.698938902999,NaN,1,1,,
69,1,1,7460.jpg,168.715724844998,169.34694616,170.644534896997,NaN,1,1,,
70,1,1,7230.jpg,170.660884851997,171.292643585999,174.186112058,NaN,1,1,,
71,1,1,1720.jpg,174.202442974998,174.833790425,175.632515448,NaN,1,1,,
72,1,1,7351.jpg,175.649345566999,176.280763922998,178.376070306,NaN,1,1,,
73,1,1,2240.jpg,178.392198984999,179.024489473999,181.319066610999,NaN,1,1,,
74,1,1,4653.jpg,181.335186202999,181.967579197,184.560410524999,NaN,1,1,,
75,1,1,7340.jpg,184.578125879998,185.209622431001,187.704256555,NaN,1,1,,
76,1,1,7330.jpg,187.719724000999,188.352282983,189.050703621,NaN,1,1,,
77,1,1,4531.jpg,189.067608605001,189.699334956,190.697086921999,NaN,1,1,,
78,1,1,4611.jpg,190.71397647,191.345066575999,193.140880668998,NaN,1,1,,
79,1,1,7350.jpg,193.157858726998,193.789909195999,196.783126642,NaN,1,1,,
80,1,1,4656.jpg,196.799264424,197.431359220998,199.924505259998,NaN,1,1,,
81,1,1,7402.jpg,199.941896020999,200.573888896,202.369748632998,NaN,1,1,,
82,1,1,4651.jpg,202.386267702997,203.017898025999,206.010844803997,NaN,1,1,,
83,1,1,7230.jpg,206.027456068998,206.659293201999,209.253181623,NaN,1,1,,
84,1,1,4640.jpg,209.269148361,209.901795873,210.799842738001,NaN,1,1,,
85,1,1,4640.jpg,210.816165247001,211.447934634998,214.441080355999,NaN,0,1,,
86,1,1,5270.jpg,214.457739411999,215.089479218001,217.783214661998,NaN,1,1,,
87,1,1,5628.jpg,217.799850377,218.431829042998,220.327125684998,NaN,1,1,,
88,1,1,5628.jpg,220.343920650001,220.975804923,223.96870297,NaN,0,1,,
89,1,1,5622.jpg,223.985210969,224.616888773999,226.612427840999,NaN,1,1,,
90,1,1,7430.jpg,226.628868288997,227.260771253998,228.158943943999,NaN,1,1,,
91,1,1,4608.jpg,228.175215552998,228.806970023001,230.503260181998,NaN,1,1,,
92,1,1,7450.jpg,230.520063044998,231.151838489001,232.648107978999,NaN,1,1,,
93,1,1,7460.jpg,232.665027056999,233.296786071998,235.192052950999,NaN,1,1,,
94,1,1,4534.jpg,235.208664671998,235.840491564999,237.237391711998,NaN,1,1,,
95,1,1,7340.jpg,237.254075778001,237.885659484,240.180587358998,NaN,1,1,,
96,1,1,4651.jpg,240.196884473,240.828827130001,243.223090716998,NaN,1,1,,
97,1,1,7430.jpg,243.239790247,243.871607755998,245.767435905,NaN,1,1,,
98,1,1,7330.jpg,245.783790170997,246.414794525001,249.408836810999,NaN,1,1,,
99,1,1,7450.jpg,249.425195101998,250.056940602,252.251628204998,NaN,1,1,,
100,1,1,7230.jpg,252.268539772998,252.900610619999,255.494237932999,NaN,1,1,,
101,1,1,7230.jpg,255.510829440998,256.142977215997,257.040496993999,NaN,0,1,,
102,1,1,5622.jpg,257.057343287001,257.689360081,260.183369136001,NaN,1,1,,
103,1,1,7350.jpg,260.199775628,260.831918021999,263.724724078998,NaN,1,1,,
104,1,1,1720.jpg,263.741610298999,264.373535569001,266.069305730998,NaN,1,1,,
105,1,1,1720.jpg,266.085892712999,266.717643115,268.413949619,NaN,0,1,,
106,1,1,5270.jpg,268.430549537999,269.062287181998,270.558457276999,NaN,1,1,,
107,1,1,4640.jpg,270.575537304998,271.207251252999,273.601441897001,NaN,1,1,,
108,1,1,4656.jpg,273.618483170998,274.249778099998,275.846372499,NaN,1,1,,
109,1,1,4608.jpg,275.863123263,276.494768115001,278.389169927999,NaN,1,1,,
110,1,1,2240.jpg,278.406726704998,279.038761505999,280.634918747,NaN,1,1,,
111,1,1,7402.jpg,280.651399438,281.313683485998,283.179248240998,NaN,1,1,,
112,1,1,7402.jpg,283.195217148997,283.826894844999,286.820662558999,NaN,0,1,,
113,1,1,7351.jpg,286.836656859999,287.467912505999,290.062869427999,NaN,1,1,,
114,1,1,7460.jpg,290.079409339,290.711366965999,292.307582023001,NaN,1,1,,
115,1,1,4653.jpg,292.323682169997,292.956032938,294.053643576,NaN,1,1,,
116,1,1,5628.jpg,294.069969820001,294.701741721998,296.996388095999,NaN,1,1,,
117,1,1,4534.jpg,297.013275895999,297.644877520997,300.139127253999,NaN,1,1,,
118,1,1,4531.jpg,300.156803680999,300.788464163001,302.383968866998,NaN,1,1,,
119,1,1,4611.jpg,302.400250491999,303.032539357999,303.830389266001,NaN,1,1,,
120,1,1,5628.jpg,303.847201230998,304.478905094998,307.371494126,NaN,1,1,,
121,1,1,4534.jpg,307.388624290998,308.020771594998,309.816178339999,NaN,1,1,,
122,1,1,7430.jpg,309.832901351998,310.464887929,312.160801882001,NaN,1,1,,
123,1,1,4640.jpg,312.177352571998,312.809139351,315.203530160998,NaN,1,1,,
124,1,1,4656.jpg,315.220166433999,315.851980215997,318.745161845,NaN,1,1,,
125,1,1,2240.jpg,318.763008280999,319.393987435,321.388920909998,NaN,1,1,,
126,1,1,5622.jpg,321.405678101997,322.037572761998,324.930679467998,NaN,1,1,,
127,1,1,7402.jpg,324.947169560997,325.579037125,327.076892195,NaN,1,1,,
128,1,1,1720.jpg,327.092168076,327.724118163998,330.118102267999,NaN,1,1,,
129,1,1,7350.jpg,330.135270143997,330.766849899999,331.664746207,NaN,1,1,,
130,1,1,7450.jpg,331.681660189999,332.313801472999,334.707589787999,NaN,1,1,,
131,1,1,7230.jpg,334.724205172999,335.356346896999,338.049800510998,NaN,1,1,,
132,1,1,7230.jpg,338.066490417001,338.698219620997,341.692316396999,NaN,0,1,,
133,1,1,7340.jpg,341.707741803999,342.339624786,343.636720081999,NaN,1,1,,
134,1,1,7460.jpg,343.653242140997,344.285195889999,346.780241418997,NaN,1,1,,
135,1,1,4531.jpg,346.795814626999,347.427701543998,350.121360231999,NaN,1,1,,
136,1,1,7351.jpg,350.137906673001,350.769875549999,352.864929556999,NaN,1,1,,
137,1,1,7330.jpg,352.881544589,353.5132409,354.710509085999,NaN,1,1,,
138,1,1,4608.jpg,354.727160586997,355.359194676999,357.553788344998,NaN,1,1,,
139,1,1,4653.jpg,357.570441850999,358.20251495,361.196454706998,NaN,1,1,,
140,1,1,4611.jpg,361.211866704998,361.843578435,363.440913227998,NaN,1,1,,
141,1,1,4651.jpg,363.472742021,364.105454942001,366.000444689998,NaN,1,1,,
142,1,1,4651.jpg,366.017071053,366.649080327999,369.043191763998,NaN,0,1,,
143,1,1,5270.jpg,369.059908514999,369.691734542001,372.684905483999,NaN,1,1,,
144,1,1,5270.jpg,372.701436962998,373.333257230999,376.127654314998,NaN,0,1,,
145,1,1,4656.jpg,376.143153192999,376.775698189998,377.873504740997,NaN,1,1,,
146,1,1,4656.jpg,377.890278922998,378.521125602998,379.518703494999,NaN,0,1,,
147,1,1,4534.jpg,379.535547314998,380.167405054999,382.162324337998,NaN,1,1,,
148,1,1,5622.jpg,382.179079698999,382.811162042999,385.104906959001,NaN,1,1,,
149,1,1,4651.jpg,385.121772799001,385.752879149,387.149802280001,NaN,1,1,,
150,1,1,7460.jpg,387.16658782,387.798116287999,389.694605571,NaN,1,1,,
151,1,1,7402.jpg,389.711189522,390.342135635998,392.438251807998,NaN,1,1,,
152,1,1,4531.jpg,392.454371866999,393.086934212999,394.981565342998,NaN,1,1,,
153,1,1,7230.jpg,394.998359695997,395.630833108,397.525702523999,NaN,1,1,,
154,1,1,2240.jpg,397.559691582999,398.191273322998,398.889701839998,NaN,1,1,,
155,1,1,2240.jpg,398.906544769998,399.537618694998,400.436069754,NaN,0,1,,
156,1,1,4640.jpg,400.469243961001,401.100713421998,403.994347802,NaN,1,1,,
157,1,1,5628.jpg,404.010893469,404.641969258999,405.342210438001,NaN,1,1,,
158,1,1,5270.jpg,405.356906376997,405.989520366998,408.783158087001,NaN,1,1,,
159,1,1,7351.jpg,408.799503819999,409.431599011001,410.728351368998,NaN,1,1,,
160,1,1,7350.jpg,410.744967838,411.377014721998,413.671547760998,NaN,1,1,,
161,1,1,7350.jpg,413.688422275998,414.320819646,415.217799079997,NaN,0,1,,
162,1,1,7450.jpg,415.234444438,415.866408359998,418.759294295,NaN,1,1,,
163,1,1,4611.jpg,418.775592516999,419.407890027,420.706095074998,NaN,1,1,,
164,1,1,7330.jpg,420.738739625998,421.370121406999,424.164130743,NaN,1,1,,
165,1,1,4653.jpg,424.179619218998,424.812029205998,425.609605411999,NaN,1,1,,
166,1,1,1720.jpg,425.626273415997,426.259171846999,427.754435675,NaN,1,1,,
167,1,1,7340.jpg,427.771258237,428.402419497001,429.500781381001,NaN,1,1,,
168,1,1,4608.jpg,429.517452388998,430.149363708999,433.043420639999,NaN,1,1,,
169,1,1,7430.jpg,433.059140023997,433.691087619998,435.486383836,NaN,1,1,,
170,1,1,7430.jpg,435.502912427997,436.134730173999,437.631638242998,NaN,0,1,,
171,1,1,7330.jpg,437.648363773998,438.280199016997,440.974632113997,NaN,1,1,,
172,1,1,7351.jpg,440.990703551,441.622227575001,444.116441767997,NaN,1,1,,
173,1,1,4640.jpg,444.133053508998,444.765491796999,446.262107518,NaN,1,1,,
174,1,1,4640.jpg,446.277536911999,446.910368064,449.703106778998,NaN,0,1,,
175,1,1,7340.jpg,449.719604927999,450.351595804997,452.446713254998,NaN,1,1,,
176,1,1,4656.jpg,452.462962866997,453.095501248001,454.890597658999,NaN,1,1,,
177,1,1,4656.jpg,454.907269490999,455.538268862998,456.537092373997,NaN,0,1,,
178,1,1,2240.jpg,456.552967970998,457.185763968999,459.280649181997,NaN,1,1,,
179,1,1,7350.jpg,459.297324567,459.929147267998,461.624803070001,NaN,1,1,,
180,1,1,4611.jpg,461.641464730001,462.273621087999,464.568094969,NaN,1,1,,
181,1,1,7402.jpg,464.584737441,465.216361416999,467.81071663,NaN,1,1,,
182,1,1,7402.jpg,467.827126803,468.458965736998,471.053011394,NaN,0,1,,
183,1,1,1720.jpg,471.069655160998,471.701624877998,474.095671214,NaN,1,1,,
184,1,1,7230.jpg,474.111982233,474.744474735999,476.240504133999,NaN,1,1,,
185,1,1,4534.jpg,476.257398266,476.889431672,478.784138449999,NaN,1,1,,
186,1,1,7460.jpg,478.801323697,479.433198561001,482.225731597999,NaN,1,1,,
187,1,1,5628.jpg,482.243640695,482.875205013999,483.573439969998,NaN,1,1,,
188,1,1,5622.jpg,483.606664495001,484.238514794997,486.632855331998,NaN,1,1,,
189,1,1,4531.jpg,486.649063852998,487.281372927999,488.478456884,NaN,1,1,,
190,1,1,7430.jpg,488.495073553,489.126723509999,491.820146516999,NaN,1,1,,
191,1,1,7450.jpg,491.837555144997,492.469026297,494.065284738001,NaN,1,1,,
192,1,1,4608.jpg,494.081978640999,494.714062259998,497.108289789998,NaN,1,1,,
193,1,1,4653.jpg,497.142522867998,497.774180405999,498.970327476,NaN,1,1,,
194,1,1,5270.jpg,498.987173101999,499.619174064999,500.417002042999,NaN,1,1,,
195,1,1,4651.jpg,500.433308642998,501.049124683999,502.861226117999,NaN,1,1,,
196,1,1,7402.jpg,502.878956321998,503.509779004999,506.203311197998,NaN,1,1,,
197,1,1,5622.jpg,506.219914253998,506.852278613998,508.747428511,NaN,1,1,,
198,1,1,7330.jpg,508.763744076998,509.395398147,510.094350862,NaN,1,1,,
199,1,1,7330.jpg,510.110912131,510.742740433998,512.538511737999,NaN,0,1,,
200,1,1,4656.jpg,512.555126864998,513.186847811998,514.184487627997,NaN,1,1,,
201,1,1,4656.jpg,514.202328574,514.833303469997,516.130032663001,NaN,0,1,,
202,1,1,4611.jpg,516.146498863,516.778358628999,517.577545419997,NaN,1,1,,
203,1,1,4611.jpg,517.594335962,518.225333991999,519.820140835,NaN,0,1,,
204,1,1,4653.jpg,519.838066141998,520.469710270998,522.365400446,NaN,1,1,,
205,1,1,7351.jpg,522.399503831999,523.030423751999,525.624325008001,NaN,1,1,,
206,1,1,4534.jpg,525.640891086998,526.273037450999,528.667131678998,NaN,1,1,,
207,1,1,5628.jpg,528.683782134998,529.315515736998,531.011618584998,NaN,1,1,,
208,1,1,4531.jpg,531.028094841,531.659953503,533.655298465001,NaN,1,1,,
209,1,1,5270.jpg,533.672020277998,534.302779791,537.097182337999,NaN,1,1,,
210,1,1,7450.jpg,537.113917868999,537.745732399999,540.141063538998,NaN,1,1,,
211,1,1,7450.jpg,540.156716161,540.788568699998,542.783948597,NaN,0,1,,
212,1,1,2240.jpg,542.817072248999,543.448877407998,545.045008388999,NaN,1,1,,
213,1,1,1720.jpg,545.061816645997,545.693901406998,546.491567933001,NaN,1,1,,
214,1,1,4608.jpg,546.509280661998,547.140240632998,549.235252593,NaN,1,1,,
215,1,1,7460.jpg,549.251896264999,549.88367318,551.380537041998,NaN,1,1,,
216,1,1,7230.jpg,551.396540384998,552.028641159999,554.522875921,NaN,1,1,,
217,1,1,7430.jpg,554.539368571997,555.171573653999,556.767502005998,NaN,1,1,,
218,1,1,7430.jpg,556.784293403998,557.416051733999,558.213449545998,NaN,0,1,,
219,1,1,7350.jpg,558.230685273,558.862862238999,559.960033840998,NaN,1,1,,
220,1,1,7340.jpg,559.976557841997,560.608144095,563.102670356999,NaN,1,1,,
221,1,1,4640.jpg,563.136492898,563.767746465001,566.061631216999,NaN,1,1,,
222,1,1,4640.jpg,566.078397326997,566.710770991998,569.504010304998,NaN,0,1,,
223,1,1,4651.jpg,569.520511526,570.152576172997,572.548298718,NaN,1,1,,
224,1,1,7330.jpg,572.563311303998,573.195739594001,574.79164376,NaN,1,1,,
225,1,1,5622.jpg,574.808328863,575.440151766001,576.637397876999,NaN,1,1,,
226,1,1,7351.jpg,576.654037154,577.285772013998,580.279080017997,NaN,1,1,,
227,1,1,2240.jpg,580.295454165,580.926403657999,583.522188228999,NaN,1,1,,
228,1,1,4611.jpg,583.537084,584.169630651999,586.066285825,NaN,1,1,,
229,1,1,7450.jpg,586.081106776997,586.713877546001,588.908409526997,NaN,1,1,,
230,1,1,7450.jpg,588.924225029998,589.556881043998,592.399395837998,NaN,0,1,,
231,1,1,7230.jpg,592.416726239,593.048939245,595.343233279,NaN,1,1,,
232,1,1,7350.jpg,595.360017785999,595.992176921998,598.286378216999,NaN,1,1,,
233,1,1,5270.jpg,598.303039712999,598.934860358,601.129432349,NaN,1,1,,
234,1,1,7402.jpg,601.145827345001,601.778380262,604.072909914998,NaN,1,1,,
235,1,1,1720.jpg,604.089557711999,604.721581776001,607.115513058998,NaN,1,1,,
236,1,1,4640.jpg,607.132449091998,607.764019472001,608.562175715,NaN,1,1,,
237,1,1,4653.jpg,608.596366007998,609.227438334998,611.421983663,NaN,1,1,,
238,1,1,7430.jpg,611.439783555998,612.070131343,613.965226240998,NaN,1,1,,
239,1,1,4656.jpg,613.982471943,614.614792029999,616.809389844999,NaN,1,1,,
240,1,1,4651.jpg,616.826040018001,617.456801122,620.151241946998,NaN,1,1,,
241,1,1,4531.jpg,620.16726808,620.800201684,623.094490751999,NaN,1,1,,
242,1,1,4531.jpg,623.112576544998,623.743277412999,626.337039190999,NaN,0,1,,
243,1,1,4608.jpg,626.353499992998,626.985872579,628.082802139001,NaN,1,1,,
244,1,1,5628.jpg,628.116982389998,628.748136409999,631.241528479,NaN,1,1,,
245,1,1,5628.jpg,631.257723031998,631.890556699,633.287207538,NaN,0,1,,
246,1,1,7340.jpg,633.303890060997,633.935902873,634.933356785001,NaN,1,1,,
247,1,1,4534.jpg,634.966479895,635.598673165998,637.494074769998,NaN,1,1,,
248,1,1,7460.jpg,637.510546783,638.142443835997,640.237257770001,NaN,1,1,,
249,1,1,4651.jpg,640.253687494998,640.886195735999,642.880918516999,NaN,1,1,,
250,1,1,4531.jpg,642.897982660001,643.529824262998,644.227975554,NaN,1,1,,
251,1,1,5628.jpg,644.244013284999,644.876684534,647.17115998,NaN,1,1,,
252,1,1,7460.jpg,647.187779814998,647.819370883,648.817326707998,NaN,1,1,,
253,1,1,7230.jpg,648.850540951,649.482620096998,651.976600677997,NaN,1,1,,
254,1,1,7402.jpg,651.993097154998,652.625024515,653.921732385999,NaN,1,1,,
255,1,1,7351.jpg,653.954971937001,654.587067031,655.285415858998,NaN,1,1,,
256,1,1,4534.jpg,655.301949082001,655.933958612997,657.629782010001,NaN,1,1,,
257,1,1,7430.jpg,657.646370277998,658.277941176999,659.575140266999,NaN,1,1,,
258,1,1,7450.jpg,659.591732147997,660.223933269001,662.8182782,NaN,1,1,,
259,1,1,7450.jpg,662.833867067999,663.465797999001,666.359230909999,NaN,0,1,,
260,1,1,2240.jpg,666.392496254997,667.024220650997,668.820005623998,NaN,1,1,,
261,1,1,5270.jpg,668.836409918,669.468596659997,671.663330601001,NaN,1,1,,
262,1,1,5622.jpg,671.679577995001,672.295588010998,674.506741672998,NaN,1,1,,
263,1,1,5622.jpg,674.523260722999,675.155119130999,677.351221135999,NaN,0,1,,
264,1,1,7330.jpg,677.366265295001,677.998749826998,680.193181167,NaN,1,1,,
265,1,1,7330.jpg,680.210038698999,680.842012906,683.336972789999,NaN,0,1,,
266,1,1,7350.jpg,683.368948556999,684.001226297998,685.896611013999,NaN,1,1,,
267,1,1,4656.jpg,685.913358784001,686.545065097998,688.839617079,NaN,1,1,,
268,1,1,4656.jpg,688.856143598998,689.488831867999,690.286190092,NaN,0,1,,
269,1,1,4653.jpg,690.302822351998,690.934876796,693.029625560997,NaN,1,1,,
270,1,1,7340.jpg,693.046370649998,693.678464507,695.574752156997,NaN,1,1,,
271,1,1,7340.jpg,695.590368952999,696.222428066998,698.716250443998,NaN,0,1,,
272,1,1,4640.jpg,698.731729155999,699.364704248001,701.360014485999,NaN,1,1,,
273,1,1,1720.jpg,701.376883295998,702.008521739001,702.807839625999,NaN,1,1,,
274,1,1,4608.jpg,702.823164826998,703.455099348001,704.253187578997,NaN,1,1,,
275,1,1,4611.jpg,704.269630931998,704.901960939998,707.895803815998,NaN,1,1,,
276,1,1,7430.jpg,707.911207926998,708.543391968,709.741331978999,NaN,1,1,,
277,1,1,7450.jpg,709.757036518,710.388855338999,711.885167779001,NaN,1,1,,
278,1,1,7402.jpg,711.902023719998,712.533988833999,714.329624770999,NaN,1,1,,
279,1,1,7402.jpg,714.345905467999,714.97822356,716.274994857999,NaN,0,1,,
280,1,1,4640.jpg,716.290586679999,716.906793767997,718.319902962998,NaN,1,1,,
281,1,1,4640.jpg,718.336725679997,718.968487452999,720.366260029998,NaN,0,1,,
282,1,1,4656.jpg,720.381930883999,721.013866235,723.408200009999,NaN,1,1,,
283,1,1,4651.jpg,723.442150978,724.073436797,724.871337303,NaN,1,1,,
284,1,1,7340.jpg,724.887965881,725.520037112998,726.718127095999,NaN,1,1,,
285,1,1,7460.jpg,726.733743859,727.365511907999,728.063823779998,NaN,1,1,,
286,1,1,7350.jpg,728.080441424998,728.712099413999,730.407314898999,NaN,1,1,,
287,1,1,5270.jpg,730.424886667999,731.056976715998,731.855072578997,NaN,1,1,,
288,1,1,4608.jpg,731.871496112999,732.503605408998,734.198872941,NaN,1,1,,
289,1,1,4534.jpg,734.215609355,734.848037698997,736.743348516,NaN,1,1,,
290,1,1,5628.jpg,736.760121144998,737.392415721999,739.685836889999,NaN,1,1,,
291,1,1,7230.jpg,739.702952020998,740.334747715999,743.029614044,NaN,1,1,,
292,1,1,1720.jpg,743.045182971,743.677003442001,745.172968980998,NaN,1,1,,
293,1,1,7330.jpg,745.190094624999,745.821264736998,746.719750550001,NaN,1,1,,
294,1,1,4653.jpg,746.736508793998,747.368547631999,749.762566548998,NaN,1,1,,
295,1,1,4531.jpg,749.779244204998,750.411001073,751.408248980999,NaN,1,1,,
296,1,1,7351.jpg,751.424871583,752.057511750998,754.152332441998,NaN,1,1,,
297,1,1,4611.jpg,754.168594799998,754.799701815999,757.693882642998,NaN,1,1,,
298,1,1,5622.jpg,757.710553707999,758.342443767,760.138221816,NaN,1,1,,
299,1,1,2240.jpg,760.154404522,760.786056951998,761.983789317001,NaN,1,1,,
300,1,1,4651.jpg,762.000496930999,762.632328006999,763.430115306997,NaN,1,1,,
301,1,1,4534.jpg,763.445999166997,764.077854822001,765.475499754,NaN,1,1,,
302,1,1,1720.jpg,765.492250904997,766.124334397999,768.817475953998,NaN,1,1,,
303,1,1,7350.jpg,768.83445826,769.46582705,771.062289383997,NaN,1,1,,
304,1,1,2240.jpg,771.080052505,771.710776939999,774.404545779998,NaN,1,1,,
305,1,1,4653.jpg,774.421202424997,775.053288259998,777.746495158997,NaN,1,1,,
306,1,1,7402.jpg,777.763112495999,778.395384921998,779.991408218,NaN,1,1,,
307,1,1,7450.jpg,780.008066943999,780.640608082998,782.534583188,NaN,1,1,,
308,1,1,4656.jpg,782.552786488999,783.183907598999,784.480821959998,NaN,1,1,,
309,1,1,4531.jpg,784.497469473998,785.129181659999,786.825291834997,NaN,1,1,,
310,1,1,7460.jpg,786.841969200999,787.473779952001,789.568848347,NaN,1,1,,
311,1,1,4608.jpg,789.585415171998,790.217586741001,792.81127636,NaN,1,1,,
312,1,1,5628.jpg,792.827756629998,793.460213356,794.457010732,NaN,1,1,,
313,1,1,7430.jpg,794.473788105999,795.106048647998,796.702091342999,NaN,1,1,,
314,1,1,7430.jpg,796.718468766998,797.350750198999,800.2436772,NaN,0,1,,
315,1,1,7340.jpg,800.260333750997,800.891741171999,802.787718495998,NaN,1,1,,
316,1,1,5622.jpg,802.805233450999,803.436239303999,805.730482773997,NaN,1,1,,
317,1,1,7351.jpg,805.747291233998,806.379145135001,808.474045239,NaN,1,1,,
318,1,1,4640.jpg,808.490963819,809.122759556998,809.920956456997,NaN,1,1,,
319,1,1,4611.jpg,809.953982479998,810.586210473997,812.881886700998,NaN,1,1,,
320,1,1,5270.jpg,812.897059008999,813.528924767001,814.726132858999,NaN,1,1,,
321,1,1,7230.jpg,814.742787634998,815.374890498999,816.372172734998,NaN,1,1,,
322,1,1,7330.jpg,816.388992386001,817.020862119,819.914936711,NaN,1,1,,
323,1,1,4531.jpg,819.947234022999,820.579068253999,821.576743373,NaN,1,1,,
324,1,1,4651.jpg,821.593292995,822.225451554998,823.123191498998,NaN,1,1,,
325,1,1,7230.jpg,823.139962264999,823.771613385998,825.667087181999,NaN,1,1,,
326,1,1,4653.jpg,825.683614278998,826.315621219997,827.113672618998,NaN,1,1,,
327,1,1,5622.jpg,827.130218105998,827.762374334998,830.256174332,NaN,1,1,,
328,1,1,5628.jpg,830.272910873999,830.904982507,833.498628513,NaN,1,1,,
329,1,1,7450.jpg,833.515266453,834.146977897999,835.643558622,NaN,1,1,,
330,1,1,1720.jpg,835.660078254998,836.292080836,837.689012277999,NaN,1,1,,
331,1,1,4656.jpg,837.704837028999,838.320483076001,840.232835382998,NaN,1,1,,
332,1,1,4611.jpg,840.249207706998,840.881341138,843.475039566998,NaN,1,1,,
333,1,1,7340.jpg,843.491662557,844.123608569,846.817207673997,NaN,1,1,,
334,1,1,5270.jpg,846.835126662998,847.465783926,850.458714592998,NaN,1,1,,
335,1,1,5270.jpg,850.475285737,851.107182684998,852.404189456,NaN,0,1,,
336,1,1,4534.jpg,852.420722662999,853.052491736998,854.548984968998,NaN,1,1,,
337,1,1,2240.jpg,854.58164167,855.214797311997,856.711568037001,NaN,1,1,,
338,1,1,7460.jpg,856.744683476998,857.375754211,858.672223488,NaN,1,1,,
339,1,1,7330.jpg,858.689147022,859.319972222998,861.615321262998,NaN,1,1,,
340,1,1,7330.jpg,861.632135117998,862.264202054001,864.657651539001,NaN,0,1,,
341,1,1,7350.jpg,864.675110328,865.306147886,866.004399850997,NaN,1,1,,
342,1,1,4640.jpg,866.021920069998,866.654020541999,867.551605263998,NaN,1,1,,
343,1,1,7430.jpg,867.568534885999,868.200401953,870.594336072998,NaN,1,1,,
344,1,1,7402.jpg,870.610832915998,871.242935113998,873.437817975999,NaN,1,1,,
345,1,1,4608.jpg,873.453697567998,874.069882585998,876.681359694998,NaN,1,1,,
346,1,1,7351.jpg,876.696387663,877.329549668,878.226438528,NaN,1,1,,
347,1,1,7230.jpg,878.243083310001,878.875108658998,880.969978752,NaN,1,1,,
348,1,1,7351.jpg,880.986594640999,881.619426836998,882.516383288999,NaN,1,1,,
349,1,1,7460.jpg,882.533066987999,883.165172172998,885.359631964999,NaN,1,1,,
350,1,1,7460.jpg,885.376216871999,886.008220827,887.604328452999,NaN,0,1,,
351,1,1,7402.jpg,887.621989725998,888.253121567999,890.447705086,NaN,1,1,,
352,1,1,7402.jpg,890.464258855998,891.096426832999,892.991677652,NaN,0,1,,
353,1,1,4640.jpg,893.00763715,893.640061701997,894.737508315,NaN,1,1,,
354,1,1,4534.jpg,894.754237382,895.385957180999,897.181862685,NaN,1,1,,
355,1,1,4531.jpg,897.198431204997,897.830335576,898.827995575997,NaN,1,1,,
356,1,1,7330.jpg,898.844486369999,899.476733443,902.369547447001,NaN,1,1,,
357,1,1,7330.jpg,902.387415642999,903.018137913998,903.716427250998,NaN,0,1,,
358,1,1,7350.jpg,903.733084476,904.364833764997,905.262654081998,NaN,1,1,,
359,1,1,2240.jpg,905.279404820998,905.911371882998,907.706982880998,NaN,1,1,,
360,1,1,4608.jpg,907.724808225001,908.355757858,910.849539553998,NaN,1,1,,
361,1,1,4653.jpg,910.883625802999,911.515482306,914.108534324998,NaN,1,1,,
362,1,1,7430.jpg,914.124446021,914.757124833999,915.654225758,NaN,1,1,,
363,1,1,5622.jpg,915.671629035998,916.303563527999,918.597690328999,NaN,1,1,,
364,1,1,1720.jpg,918.614219128998,919.246431838001,921.042218932998,NaN,1,1,,
365,1,1,4611.jpg,921.058867766998,921.690626445998,922.788046967999,NaN,1,1,,
366,1,1,5628.jpg,922.805030732998,923.436849923,924.833395725,NaN,1,1,,
367,1,1,7450.jpg,924.849864454998,925.481897195001,926.978082897,NaN,1,1,,
368,1,1,4656.jpg,926.99483489,927.627089775,929.223000406,NaN,1,1,,
369,1,1,5270.jpg,929.256082755001,929.888325870001,932.482064591,NaN,1,1,,
370,1,1,4651.jpg,932.498828237,933.131022173999,933.828716766999,NaN,1,1,,
371,1,1,7340.jpg,933.862828781999,934.49390188,937.288436583,NaN,1,1,,
372,1,1,4534.jpg,937.303980015,937.936014195999,938.634077183,NaN,1,1,,
373,1,1,4651.jpg,938.650778258998,939.282889656999,940.180319490999,NaN,1,1,,
374,1,1,7230.jpg,940.196995945,940.829196035,941.727932069,NaN,1,1,,
375,1,1,7330.jpg,941.743519227999,942.375433671998,945.168832913998,NaN,1,1,,
376,1,1,5622.jpg,945.185301047,945.816963439,948.610564097999,NaN,1,1,,
377,1,1,2240.jpg,948.626841418998,949.259016575001,951.154621834998,NaN,1,1,,
378,1,1,2240.jpg,951.171285565,951.803118412998,954.596509657,NaN,0,1,,
379,1,1,5628.jpg,954.613161566998,955.24525118,956.740893492999,NaN,1,1,,
380,1,1,7430.jpg,956.757644106998,957.390002921999,959.385182807,NaN,1,1,,
381,1,1,7351.jpg,959.419617309999,960.050556749,963.043530027,NaN,1,1,,
382,1,1,7350.jpg,963.059555477001,963.691633398998,965.387674046,NaN,1,1,,
383,1,1,4656.jpg,965.404405074998,966.036434363999,967.033845492999,NaN,1,1,,
384,1,1,4611.jpg,967.050505749998,967.682278565,970.076700777998,NaN,1,1,,
385,1,1,4653.jpg,970.092522603998,970.725084166999,972.221359987998,NaN,1,1,,
386,1,1,4653.jpg,972.238097875001,972.870207681,974.864336003,NaN,0,1,,
387,1,1,7450.jpg,974.882021947,975.513817088999,977.708711135998,NaN,1,1,,
388,1,1,4640.jpg,977.741941918001,978.373827431999,980.568429192997,NaN,1,1,,
389,1,1,4531.jpg,980.585266344999,981.216882075998,983.21237383,NaN,1,1,,
390,1,1,1720.jpg,983.229252297999,983.860863050999,986.554435755999,NaN,1,1,,
391,1,1,4608.jpg,986.570877276998,987.20300718,989.397728248998,NaN,1,1,,
392,1,1,7460.jpg,989.431465697999,990.063258476999,992.157882750998,NaN,1,1,,
393,1,1,7340.jpg,992.174554605997,992.806761542,994.403420311999,NaN,1,1,,
394,1,1,5270.jpg,994.418321654997,995.051260116998,996.048801597997,NaN,1,1,,
395,1,1,7402.jpg,996.065541272001,996.697494486998,998.991779093998,NaN,1,1,,
396,1,1,7402.jpg,999.009573945001,999.640133212997,1001.436382669,NaN,0,1,,
397,1,1,5270.jpg,1001.452940576,1002.084433852,1004.978864161,NaN,1,1,,
398,1,1,4611.jpg,1004.994292484,1005.626567454,1006.724706197,NaN,1,1,,
399,1,1,7351.jpg,1006.740278286,1007.372138651,1009.367536659,NaN,1,1,,
400,1,1,7340.jpg,1009.383951114,1010.015894902,1010.814027703,NaN,1,1,,
401,1,1,7402.jpg,1010.830654365,1011.462448036,1013.258241027,NaN,1,1,,
402,1,1,4640.jpg,1013.274887491,1013.906749164,1016.401118484,NaN,1,1,,
403,1,1,4640.jpg,1016.417470395,1017.04922503,1019.443585005,NaN,0,1,,
404,1,1,7450.jpg,1019.461278627,1020.092217657,1021.289217766,NaN,1,1,,
405,1,1,4534.jpg,1021.305530979,1021.937973972,1023.933033398,NaN,1,1,,
406,1,1,4653.jpg,1023.949679564,1024.581631373,1025.778604447,NaN,1,1,,
407,1,1,2240.jpg,1025.795331657,1026.427134963,1029.420397311,NaN,1,1,,
408,1,1,2240.jpg,1029.43679868,1030.068375995,1032.862329968,NaN,0,1,,
409,1,1,7230.jpg,1032.878692768,1033.510566218,1036.403685586,NaN,1,1,,
410,1,1,7350.jpg,1036.420348648,1037.052156641,1039.346822303,NaN,1,1,,
411,1,1,4531.jpg,1039.363258987,1039.995491478,1041.692298724,NaN,1,1,,
412,1,1,5628.jpg,1041.707749367,1042.339926421,1043.637692053,NaN,1,1,,
413,1,1,4608.jpg,1043.653322754,1044.285357094,1045.581984432,NaN,1,1,,
414,1,1,7330.jpg,1045.598513495,1046.230448596,1048.525132813,NaN,1,1,,
415,1,1,4656.jpg,1048.541684289,1049.173662417,1050.171220355,NaN,1,1,,
416,1,1,7460.jpg,1050.187758762,1050.819220344,1052.615484217,NaN,1,1,,
417,1,1,5622.jpg,1052.631937244,1053.263339552,1055.359017586,NaN,1,1,,
418,1,1,7430.jpg,1055.393022758,1056.023048262,1057.719484694,NaN,1,1,,
419,1,1,1720.jpg,1057.736723544,1058.368656864,1060.563338726,NaN,1,1,,
420,1,1,4651.jpg,1060.580268858,1061.211620254,1063.805320635,NaN,1,1,,
421,1,1,1720.jpg,1063.822129704,1064.453952568,1066.44945773,NaN,1,1,,
422,1,1,7350.jpg,1066.465904004,1067.081455766,1068.694164325,NaN,1,1,,
423,1,1,4651.jpg,1068.711977508,1069.342716439,1072.23518395,NaN,1,1,,
424,1,1,7402.jpg,1072.252577795,1072.883670339,1075.478528542,NaN,1,1,,
425,1,1,4653.jpg,1075.494951479,1076.126614658,1078.221781068,NaN,1,1,,
426,1,1,4640.jpg,1078.237575264,1078.870304775,1079.767610801,NaN,1,1,,
427,1,1,4656.jpg,1079.784264313,1080.400024095,1081.912835477,NaN,1,1,,
428,1,1,4608.jpg,1081.929620439,1082.561791277,1083.259356222,NaN,1,1,,
429,1,1,5270.jpg,1083.27611796,1083.908044507,1085.704046487,NaN,1,1,,
430,1,1,7230.jpg,1085.720708837,1086.351714975,1088.448572509,NaN,1,1,,
431,1,1,4534.jpg,1088.464345877,1089.096169114,1090.892977049,NaN,1,1,,
432,1,1,5628.jpg,1090.907559582,1091.523976407,1094.433476177,NaN,1,1,,
433,1,1,7351.jpg,1094.450014765,1095.082054911,1097.177222265,NaN,1,1,,
434,1,1,7351.jpg,1097.193805849,1097.825805754,1098.62394551,NaN,0,1,,
435,1,1,4531.jpg,1098.639990867,1099.272047255,1100.270103189,NaN,1,1,,
436,1,1,7430.jpg,1100.286437643,1100.918799467,1103.512177903,NaN,1,1,,
437,1,1,2240.jpg,1103.527917725,1104.160665631,1105.257312239,NaN,1,1,,
438,1,1,2240.jpg,1105.274596088,1105.906635476,1108.50142636,NaN,0,1,,
439,1,1,7450.jpg,1108.516958684,1109.148895519,1112.142044872,NaN,1,1,,
440,1,1,4611.jpg,1112.174968992,1112.80770197,1113.704654078,NaN,1,1,,
441,1,1,7340.jpg,1113.721591187,1114.353222249,1115.450649056,NaN,1,1,,
442,1,1,7330.jpg,1115.48320433,1116.11578393,1118.909120828,NaN,1,1,,
443,1,1,5622.jpg,1118.924726362,1119.55704306,1122.551924936,NaN,1,1,,
444,1,1,7460.jpg,1122.567134228,1123.19842128,1125.892445956,NaN,1,1,,
445,1,1,7460.jpg,1125.910364914,1126.541326523,1128.536429114,NaN,0,1,,
446,1,1,7330.jpg,1128.553844128,1129.185219432,1131.380787855,NaN,1,1,,
447,1,1,7430.jpg,1131.396378406,1132.028519696,1132.825511077,NaN,1,1,,
448,1,1,4608.jpg,1132.859594228,1133.491230994,1134.987509683,NaN,1,1,,
449,1,1,5622.jpg,1135.004037464,1135.636659961,1136.933958984,NaN,1,1,,
450,1,1,7350.jpg,1136.950240321,1137.58191586,1139.277879901,NaN,1,1,,
451,1,1,4651.jpg,1139.294376835,1139.925236479,1142.520151886,NaN,1,1,,
452,1,1,4651.jpg,1142.536946912,1143.16892752,1144.266024275,NaN,0,1,,
453,1,1,1720.jpg,1144.282539851,1144.914638207,1146.510765501,NaN,1,1,,
454,1,1,7450.jpg,1146.527390705,1147.159294422,1148.256779288,NaN,1,1,,
455,1,1,7402.jpg,1148.272845155,1148.88846525,1151.099617718,NaN,1,1,,
456,1,1,4534.jpg,1151.116635144,1151.74837132,1153.045344325,NaN,1,1,,
457,1,1,7351.jpg,1153.061973919,1153.693970109,1156.187893528,NaN,1,1,,
458,1,1,7340.jpg,1156.204104014,1156.819801138,1159.330526286,NaN,1,1,,
459,1,1,4611.jpg,1159.348304608,1159.979055621,1161.176348482,NaN,1,1,,
460,1,1,4653.jpg,1161.210074285,1161.841066408,1162.838688044,NaN,1,1,,
461,1,1,4653.jpg,1162.855569987,1163.487431009,1165.283174519,NaN,0,1,,
462,1,1,2240.jpg,1165.317005997,1165.948857094,1167.743985773,NaN,1,1,,
463,1,1,4640.jpg,1167.76067194,1168.392451899,1170.288109823,NaN,1,1,,
464,1,1,7230.jpg,1170.30421912,1170.936672761,1173.530454018,NaN,1,1,,
465,1,1,5628.jpg,1173.547025392,1174.178851165,1175.575574034,NaN,1,1,,
466,1,1,7460.jpg,1175.592192975,1176.22413155,1178.119542535,NaN,1,1,,
467,1,1,4531.jpg,1178.136361941,1178.768481499,1179.566238145,NaN,1,1,,
468,1,1,4656.jpg,1179.582804237,1180.214056346,1182.510254266,NaN,1,1,,
469,1,1,5270.jpg,1182.525772255,1183.158015251,1186.150620474,NaN,1,1,,
470,1,1,7430.jpg,1186.167590519,1186.799102577,1187.997484636,NaN,1,1,,
471,1,1,7430.jpg,1188.01291811,1188.644772749,1190.939470987,NaN,0,1,,
472,1,1,1720.jpg,1190.956068947,1191.58813276,1193.085271286,NaN,1,1,,
473,1,1,1720.jpg,1193.1023573,1193.732650621,1195.029724994,NaN,0,1,,
474,1,1,4651.jpg,1195.046199029,1195.678501952,1197.174733054,NaN,1,1,,
475,1,1,4608.jpg,1197.191976357,1197.823547198,1200.616548584,NaN,1,1,,
