Trial,nBack,Valence,Image,imagePresentationTime,NoisePresentationTime,x,RT,Accuracy,Clock_1,Clock_2,dataOneMinPress_1,dataOneMinPress_2
1,1,0,018.jpg,0.0272892396777138,0.686025524495278,1.050678895305,NaN,1,,,,
2,1,0,026.jpg,1.0624615679057,1.57988426826648,2.17985389993117,NaN,1,,,,
3,1,0,020.jpg,2.19162298828644,2.70927420584235,5.00339847633063,NaN,1,,,,
4,1,0,021.jpg,5.01520046874703,5.53281727288123,7.33282306882592,NaN,1,,,,
5,1,0,056.jpg,7.34458642161087,7.86224126163228,9.26224355586038,NaN,1,,,,
6,1,0,055.jpg,9.27400841800596,9.79166265428307,10.1916613260457,NaN,1,,,,
7,1,0,055.jpg,10.2034240750864,10.7210786132357,11.215193767186,NaN,0,,,,
8,1,0,016.jpg,11.2269583274594,11.7446140730971,11.9446266913517,0.317696860620515,0,,,,
9,1,0,046.jpg,11.9563740449144,12.4740460916466,14.768153155424,NaN,1,,,,
10,1,0,052.jpg,14.7799153007205,15.297570442614,17.0975750310702,NaN,1,,,,
11,1,0,019.jpg,17.1093398932157,17.6270113362037,19.0269958199767,NaN,1,,,,
12,1,0,024.jpg,19.0387621914829,19.5564149183994,20.3564170918787,NaN,1,,,,
13,1,0,059.jpg,20.368178935303,20.8858328697081,21.2858315414707,NaN,1,,,,
14,1,0,028.jpg,21.2975994223375,21.8152503380213,23.4152552887241,NaN,1,,,,
15,1,0,027.jpg,23.4270192452533,23.9446737834026,26.4388022197261,NaN,1,,,,
16,1,0,048.jpg,26.4505631575341,26.9682201106603,27.3682148580854,NaN,1,,,,
17,1,0,047.jpg,27.3799791164867,27.8976327490196,28.4976331716405,NaN,1,,,,
18,1,0,057.jpg,28.5094022599958,29.0270522700632,30.027051666319,NaN,1,28.5212281003097,,,
19,1,0,060.jpg,30.0388180378252,30.5564704628696,30.6505845300802,NaN,1,,,,
20,1,0,049.jpg,30.6623487884815,31.1800003079096,32.8741256651375,NaN,1,,,,
21,1,0,054.jpg,32.8858890179225,33.4035444616881,34.4035456691765,NaN,1,,,,
22,1,0,053.jpg,34.4153105313221,34.9329635601108,37.4270907889458,NaN,1,,,,
23,1,0,023.jpg,37.438854745475,37.9565089817521,38.9565107929848,NaN,1,,,,
24,1,0,017.jpg,38.9682738438977,39.4859289857912,41.085931521517,NaN,1,,,,
25,1,0,050.jpg,41.0976991005116,41.6153545442772,42.0153498954466,NaN,1,,,,
26,1,0,051.jpg,42.0271153613364,42.5919325883331,43.438887347664,NaN,1,,,,
27,1,0,029.jpg,43.4506519079375,43.9683058423424,44.3683039103609,NaN,1,,,,
28,1,0,030.jpg,44.3800657537852,44.8977236125278,46.7918461925322,NaN,1,,,,
29,1,0,022.jpg,46.8036098471893,47.3212658946991,49.5212721736393,NaN,1,,,,
30,1,0,022.jpg,49.5330370357848,50.0506906683177,50.9448120408337,0.8589273094953,1,,,,
31,1,0,025.jpg,50.9565753936186,51.474250459072,53.168350760914,NaN,1,,,,
32,1,0,058.jpg,53.1801132080826,53.697785858559,54.3918882735057,NaN,1,,,,
33,1,0,024.jpg,54.4036522300351,54.9213058625679,56.2154268124629,NaN,1,,,,
34,1,0,025.jpg,56.2271922783526,56.7448459108855,58.8389732604694,NaN,1,,,,
35,1,0,048.jpg,58.8507369151265,59.3684065468818,60.8625334738448,NaN,1,59.7214133894172,,,
36,1,0,016.jpg,60.8743360700054,61.3919329505796,62.1919324072098,NaN,1,,,,
37,1,0,030.jpg,62.2036957599947,62.7213524112489,63.4155215399342,NaN,1,,,,
38,1,0,049.jpg,63.4272845908471,63.944890829457,65.0390504793578,NaN,1,,,,
39,1,0,028.jpg,65.0508126246543,65.5684433149061,66.5684279194279,NaN,1,,,,
40,1,0,018.jpg,66.5919582474633,67.1096272754743,68.0037326487678,NaN,1,,,,
41,1,0,026.jpg,68.0272617693148,68.5449307973257,69.9449179979479,NaN,1,,,,
42,1,0,026.jpg,69.9566828600935,70.4743696985596,72.3684608838635,0.635444435757222,1,,,,
43,1,0,057.jpg,72.3802242366485,72.8978802841583,73.9920012944276,NaN,1,,,,
44,1,0,047.jpg,74.003765552829,74.5214234115715,75.6155392900149,NaN,1,,,,
45,1,0,052.jpg,75.6273249813368,76.1449765007648,76.4390739046344,NaN,1,,,,
46,1,0,060.jpg,76.4508384649079,76.1449765007648,76.9684869656146,NaN,1,,,,
47,1,0,051.jpg,76.9802605820518,77.4979259875972,78.2037905478405,NaN,1,,,,
48,1,0,019.jpg,78.2273248002135,78.7449920169918,79.5449745687832,NaN,1,,,,
49,1,0,019.jpg,79.5567385253124,80.0743903466126,81.6743992216529,0.835383397214514,1,,,,
50,1,0,023.jpg,81.6861640837985,82.2038174144592,84.6038296704673,NaN,1,,,,
51,1,0,055.jpg,84.6273563760373,85.1450260077925,87.5450231701946,NaN,1,,,,
52,1,0,055.jpg,87.5567880323401,88.0744395517683,89.1685623732703,0.800088207033582,1,,,,
53,1,0,054.jpg,89.180325122311,89.6979959615547,90.298024458283,NaN,1,,,,
54,1,0,050.jpg,90.309800791569,90.8274018983531,92.7450542026486,NaN,1,,,,
55,1,0,020.jpg,92.7685917756148,93.2862402763217,95.1921289259601,NaN,1,,,,
56,1,0,017.jpg,95.20389439185,95.7215625142446,97.61567241562,NaN,1,,,,
57,1,0,059.jpg,97.6392078754814,98.1568563761882,100.050984993635,NaN,1,98.6157635810002,,,
58,1,0,058.jpg,100.06274834642,100.580401073336,100.780398296113,NaN,1,,,,
59,1,0,029.jpg,100.803932246614,101.321591312845,103.015708519526,NaN,1,,,,
60,1,0,053.jpg,103.039242168154,103.556909988677,104.756894230952,NaN,1,,,,
61,1,0,053.jpg,104.768659696842,105.286329026725,105.780457463049,NaN,0,,,,
62,1,0,027.jpg,105.803948547708,106.32163478243,106.521611477903,NaN,1,,,,
63,1,0,021.jpg,106.545146032148,107.062814456414,109.156923693671,NaN,1,,,,
64,1,0,056.jpg,109.180451908602,109.698119427252,110.09810602413,NaN,1,,,,
65,1,0,046.jpg,110.121632427828,110.63929602214,111.039292278926,NaN,1,,,,
66,1,0,022.jpg,111.062822606962,111.580483484425,113.274597370513,NaN,1,,,,
67,1,0,025.jpg,113.286365251379,113.804014053958,116.098142550656,NaN,1,,,,
68,1,0,018.jpg,116.10990862029,116.627577044557,117.921732106002,NaN,1,,,,
69,1,0,017.jpg,117.93350300559,118.451104112374,120.251125303797,NaN,1,,,,
70,1,0,060.jpg,120.262875374208,120.780528402997,121.074720896584,NaN,1,,,,
71,1,0,053.jpg,121.086449232203,121.604082941176,124.004076782985,NaN,1,,,,
72,1,0,053.jpg,124.015868209877,124.533494673919,125.933501194357,0.764763131512609,1,,,,
73,1,0,053.jpg,125.945263943398,126.462919689036,128.157043536903,0.823618836941023,1,,,,
74,1,0,022.jpg,128.16880719156,126.462919689036,128.686507916144,NaN,1,,,,
75,1,0,056.jpg,128.698274891394,129.215881130004,131.310019346984,NaN,1,,,,
76,1,0,056.jpg,-1.56549432616248,-1.04782771312841,0.846290036922028,NaN,0,132.274800228578,,132.886569739554,
77,1,0,027.jpg,0.858051276602168,1.37570702223991,1.66982223656453,NaN,1,,,,
78,1,0,046.jpg,1.68158589122163,2.19923801439393,3.49336047364943,NaN,1,,,,
79,1,0,046.jpg,3.50512775077198,4.02278259079333,4.82279683915749,NaN,0,,,,
80,1,0,054.jpg,4.83456079568668,5.35220627767228,6.7522073644119,NaN,1,,,,
81,1,0,054.jpg,6.763971019069,7.28163068904428,8.28162887781161,NaN,0,,,,
82,1,0,048.jpg,8.29339494744556,8.81106095673545,9.81105401367665,NaN,1,,,,
83,1,0,029.jpg,9.8228149514847,10.340469489634,10.7404690670129,NaN,1,,,,
84,1,0,026.jpg,10.7522381553682,11.2698866560751,11.8698873805681,NaN,1,,,,
85,1,0,052.jpg,11.8816561670512,11.2698866560751,12.3993025546532,NaN,1,,,,
86,1,0,052.jpg,12.4110662093103,12.9287358410655,15.3287333053398,NaN,0,,,,
87,1,0,024.jpg,15.340502393695,15.8581816853581,17.4581987109457,NaN,1,,,,
88,1,0,030.jpg,17.4699400270659,17.9875936595988,20.3876388196679,NaN,1,,,,
89,1,0,030.jpg,20.399404889302,20.9170099204235,21.3170073846977,0.705943046994548,1,,,,
90,1,0,019.jpg,21.3287776805414,21.8464273887367,24.1405555835627,NaN,1,,,,
91,1,0,058.jpg,24.152319841964,24.6699798138113,26.6699918886961,NaN,1,,,,
92,1,0,016.jpg,26.6817534302484,27.1994010253388,28.6935273485576,NaN,1,,,,
93,1,0,016.jpg,28.7052922107032,29.2229473525966,30.3170753059248,0.505931938100503,1,,,,
94,1,0,016.jpg,30.3288314137789,30.8464980268129,31.4464984494339,NaN,0,,,,
95,1,0,023.jpg,31.4582551610322,31.9759063785881,33.8700310716974,NaN,1,,,,
96,1,0,047.jpg,33.8818001600526,34.3994719049127,34.8935668334309,NaN,1,,,,
97,1,0,049.jpg,34.905338034891,35.4230106853674,35.5170996971921,NaN,1,,,,
98,1,0,049.jpg,35.5288642574656,36.0465221162082,37.9407192586262,1.17655624888869,1,,,,
99,1,0,050.jpg,37.9524276706853,38.4700800957297,40.1642054529576,NaN,1,,,,
100,1,0,050.jpg,40.1759564289857,40.6936701340705,42.4936173668239,NaN,0,,,,
101,1,0,050.jpg,42.50538373833,43.0230358615023,44.6230435290541,0.776552747172218,1,,,,
102,1,0,051.jpg,44.6348108061767,45.1524837585253,46.1524647405818,NaN,1,,,,
103,1,0,020.jpg,46.1642317158321,46.681897725122,47.6818868577255,NaN,1,,,,
104,1,0,020.jpg,47.6936508142549,48.2113394639537,50.3054345132207,0.788320929911038,1,50.0113962762867,,,
105,1,0,028.jpg,50.3172029978317,50.8348539135155,51.6348527664014,NaN,1,,,,
106,1,0,057.jpg,51.64663513713,52.1642724685684,54.2584583813436,NaN,1,,,,
107,1,0,055.jpg,54.2701858113463,54.7878379345185,56.787828878355,NaN,1,,,,
108,1,0,021.jpg,-0.859208956183579,-0.341532381369461,1.85845337026637,NaN,1,,,57.6585062582619,
109,1,0,021.jpg,1.87021823241196,2.38787126120064,3.68199673917741,0.57657273110658,1,,,,
110,1,0,059.jpg,3.69376280881147,4.21143244056668,5.81142018455864,NaN,1,,,,
111,1,0,019.jpg,5.82318565044841,6.3408694701933,8.74085184086152,NaN,1,,,,
112,1,0,057.jpg,8.75261519364642,9.27027003366788,10.3643916476815,NaN,1,,,,
113,1,0,023.jpg,10.3761553023386,10.8938113498484,10.9879257189311,NaN,1,,,,
114,1,0,017.jpg,10.9996939016701,11.5173608165762,13.7173589449691,NaN,1,,,,
115,1,0,017.jpg,13.729119882777,14.2467735153099,15.8467778622685,0.647147414118194,1,,,,
116,1,0,059.jpg,15.8585442337746,16.3762120542972,17.2703213519283,NaN,1,,,,
117,1,0,059.jpg,17.2820825916084,17.7997386391182,20.2938812634314,0.764796035573795,1,,,,
118,1,0,047.jpg,20.3056766146611,20.8232885888415,21.3291701142979,NaN,1,,,,
119,1,0,047.jpg,21.3409334670829,21.8585916276975,23.4585953709118,0.988320869536551,1,,,,
120,1,0,051.jpg,23.4703587236968,23.9880153749509,25.4821673572998,NaN,1,,,,
121,1,0,046.jpg,25.4939062584431,26.0115686452674,27.0115589853596,NaN,1,,,,
122,1,0,046.jpg,27.0233232437608,27.5409756688052,27.8350929962348,0.658912578135869,1,,,,
123,1,0,029.jpg,27.8586248336308,27.5409756688052,28.3762739380818,NaN,1,,,,
124,1,0,060.jpg,28.3880484601352,28.905724129333,29.9056951496094,NaN,1,,,,
125,1,0,060.jpg,29.9174612192434,30.4351148517763,30.8351126179226,0.670673214071712,1,,,,
126,1,0,058.jpg,30.8468952905233,31.3645480174398,33.1645507946633,NaN,1,,,,
127,1,0,058.jpg,33.1763050912847,33.6939593275617,34.5880785869729,1.08244248355015,1,,,,
128,1,0,025.jpg,34.5998470715839,35.1174976853955,37.2116491847491,NaN,1,,,,
129,1,0,030.jpg,37.2233886896365,37.7410546989264,39.6352258803422,NaN,1,,,,
130,1,0,054.jpg,39.6469391223551,40.1645945661207,41.5645953509883,NaN,1,39.7646795129355,,,
131,1,0,024.jpg,41.5763577981569,42.0940132419224,42.494014328662,NaN,1,,,,
132,1,0,056.jpg,42.5057819076568,43.0234307102357,45.4234453812207,NaN,1,,,,
133,1,0,027.jpg,45.4352165826808,45.9528659890041,46.5528639966481,NaN,1,,,,
134,1,0,027.jpg,46.564647574865,47.0822821894544,49.4822944454625,0.388279996051551,1,,,,
135,1,0,016.jpg,49.4940656469225,50.0117289393633,50.5058806198401,NaN,1,,,,
136,1,0,055.jpg,50.5176481988348,51.0352517205956,51.9411355402802,NaN,1,,,,
137,1,0,050.jpg,51.9529049305075,52.4705682229483,52.6705606157709,NaN,1,,,,
138,1,0,049.jpg,52.6940809820263,53.2117478969325,54.8117413764946,NaN,1,,,,
139,1,0,053.jpg,54.8235101629778,55.3411770778839,55.7411962769507,NaN,1,,,,
140,1,0,020.jpg,55.7529560072703,56.2705791507191,56.3646932179297,NaN,1,,,,
141,1,0,026.jpg,56.3764632119013,56.8941271080863,58.6941316965425,NaN,1,,,,
142,1,0,026.jpg,58.7059231234347,59.2235411350573,60.1176966191229,0.941227309404667,1,,,,
143,1,0,021.jpg,60.1294536325933,60.6470770779141,62.3412018313978,NaN,1,,,,
144,1,0,052.jpg,62.3529721272415,62.8706257597744,63.7647652446176,NaN,1,,,,
145,1,0,022.jpg,63.7765129000522,64.2941632119919,65.8941675589504,NaN,1,,,,
146,1,0,048.jpg,65.9059369491778,64.2941632119919,66.4235818274192,NaN,1,,,,
147,1,0,028.jpg,66.4353530288793,66.9530178306806,69.2471285169235,NaN,1,,,,
148,1,0,018.jpg,-0.800197786613239,-0.282545059696758,1.71746309085052,NaN,1,69.5883563093236,,70.0589836992074,
149,1,0,055.jpg,1.72922704737971,2.24688158552897,4.14100748612668,NaN,1,,,,
150,1,0,056.jpg,4.1527702351674,4.67042598080513,6.76456148093632,NaN,1,,,,
151,1,0,018.jpg,6.77631940002311,7.29397273068389,8.18812308292331,NaN,1,,,,
152,1,0,051.jpg,8.19989126566225,8.71751561659948,10.3175169448368,NaN,1,,,,
153,1,0,046.jpg,10.3292818069824,10.8469414769577,12.2469416580809,NaN,1,,,,
154,1,0,026.jpg,12.2587065202265,12.7763613602478,14.0705260816003,NaN,1,,,,
155,1,0,047.jpg,14.0822604546617,14.5999014085655,15.2940222377116,NaN,1,,,,
156,1,0,047.jpg,15.3057849867523,15.823440430518,16.4234402493946,1.07067913076526,1,,,,
157,1,0,057.jpg,16.4352099414941,16.9528696114694,18.0469803580868,NaN,1,,,,
158,1,0,052.jpg,18.058744314616,18.5764006639979,19.0705245722396,NaN,1,,,,
159,1,0,016.jpg,19.0822821894543,19.5999370294757,21.5999448781508,NaN,1,,,,
160,1,0,029.jpg,21.6117148721224,22.1293621653408,24.6234939222577,NaN,1,,,,
161,1,0,023.jpg,24.6352651237178,22.1293621653408,25.1529308311355,NaN,1,,,,
162,1,0,053.jpg,25.1646830146519,25.6823294022539,26.9764497484047,NaN,1,,,,
163,1,0,025.jpg,26.9999803783122,27.5176358220778,27.7176318373658,NaN,1,,,,
164,1,0,028.jpg,27.7293948882786,28.2470497283,30.2470627088012,NaN,1,,,,
165,1,0,030.jpg,30.2588269672025,30.7764778828863,33.2706084323147,NaN,1,,,,
166,1,0,017.jpg,33.282375105693,33.8000456430646,33.8941877843824,NaN,1,,,,
167,1,0,022.jpg,33.9059460053413,34.4235594888822,36.8235741598672,NaN,1,,,,
168,1,0,021.jpg,36.8353375126522,34.4235594888822,37.3529881264639,NaN,1,,,,
169,1,0,050.jpg,37.3647520829931,37.8824072248866,39.5765322802424,NaN,1,39.1648448181085,,,
170,1,0,060.jpg,39.5882980480043,40.1060162811709,42.1059586235959,NaN,1,,,,
171,1,0,060.jpg,42.1177243913579,42.6353810426119,43.9295013887627,NaN,0,,,,
172,1,0,058.jpg,43.9530371504962,44.4706850474588,46.7648138460289,NaN,1,,,,
173,1,0,059.jpg,46.776582632512,47.2942483399297,49.5883578186841,NaN,1,,,,
174,1,0,027.jpg,49.6001444156224,50.1177847657819,51.7177873015078,NaN,1,,,,
175,1,0,054.jpg,51.729573898446,52.2472423227127,52.5413222179993,NaN,1,,,,
176,1,0,024.jpg,52.5530900988662,53.0707561081559,53.5648570741165,NaN,1,,,,
177,1,0,019.jpg,53.5766264643439,54.0942773800277,54.4942757499183,NaN,1,,,,
178,1,0,048.jpg,54.506043630785,55.0237253374252,55.1178557057302,NaN,1,,,,
179,1,0,048.jpg,55.1296172472825,55.6472301270791,55.8472255386229,0.705926444027909,1,,,,
180,1,0,020.jpg,55.8589949288503,56.3766449389177,57.9766592476562,NaN,1,,,,
181,1,0,049.jpg,57.9884210910806,58.5060871003703,60.9060827534119,NaN,1,,,,
182,1,0,026.jpg,60.9178488230459,61.4355021537067,62.3296199037571,NaN,1,,,,
183,1,0,022.jpg,-1.44727094018981,-0.929630590030229,0.0703718249467329,NaN,1,63.3297216346617,,63.7885500508504,
184,1,0,020.jpg,0.0821366870923157,0.599787904648224,3.09392026530929,NaN,1,,,,
185,1,0,018.jpg,3.10568905179241,3.62335174048894,6.0233510159959,NaN,1,,,,
186,1,0,047.jpg,6.03512010435111,6.55278218930334,8.24689486790226,NaN,1,,,,
187,1,0,047.jpg,8.25866003191993,8.77634898349083,11.2704433082648,0.91773531912861,1,,,,
188,1,0,047.jpg,11.2822090760268,11.7998916882832,13.6939886091574,0.6471462066296,1,,,,
189,1,0,056.jpg,13.7175174278321,14.2351746828305,15.0351741394607,NaN,1,,,,
190,1,0,023.jpg,15.0469399072226,15.5646107464663,17.2587182932391,NaN,1,,,,
191,1,0,053.jpg,17.2704867778501,17.7881651638969,18.3881390217713,NaN,1,,,,
192,1,0,030.jpg,18.3999005633235,18.9175641576363,19.6116756287468,NaN,1,,,,
193,1,0,046.jpg,19.6234438114857,20.1410968402743,21.835219178781,NaN,1,,,,
194,1,0,016.jpg,21.8469982289163,22.3646379753316,23.6587604345872,NaN,1,,,,
195,1,0,029.jpg,23.670528617326,24.1881876835571,25.1881819479868,NaN,1,,,,
196,1,0,048.jpg,25.199943489539,25.7176016501537,27.2117285771167,NaN,1,,,,
197,1,0,049.jpg,27.2234895149246,27.7411482792836,29.635270859288,NaN,1,,,,
198,1,0,055.jpg,29.647036928922,30.1646878446059,31.6588117528476,NaN,1,,,,
199,1,0,017.jpg,31.6705841617961,32.1882311531424,33.5882603139892,NaN,1,,,,
200,1,0,059.jpg,33.6000381566359,34.1176739787137,35.6117794727561,NaN,1,,,,
201,1,0,060.jpg,35.6235497685999,36.1412151741455,37.4353204266902,NaN,1,,,,
202,1,0,024.jpg,37.4470846850915,37.9647425438341,38.1647394647384,NaN,1,,,,
203,1,0,052.jpg,38.1765058362446,38.6941712417902,40.4941643591059,NaN,1,,,,
204,1,0,021.jpg,40.505933145589,41.0235819481679,43.5177124975963,NaN,1,,,,
205,1,0,019.jpg,43.5294791709746,44.047136727845,44.9412285168931,NaN,1,,,,
206,1,0,019.jpg,44.9530060576678,45.4706759912951,47.9648035220024,0.776572670732094,1,,,,
207,1,0,028.jpg,47.9765729122297,48.4942404308802,49.3883403704756,NaN,1,,,,
208,1,0,025.jpg,49.4001061382374,49.9177624876194,52.2118879655962,NaN,1,,,,
209,1,0,051.jpg,52.2236588651841,52.7413236669855,53.8354440735106,NaN,1,52.4589962570875,,,
210,1,0,054.jpg,53.8471971626435,54.3648628700612,55.3648495876879,NaN,1,,,,
211,1,0,050.jpg,55.3766325621607,55.8942698935991,56.3883862550379,NaN,1,,,,
212,1,0,050.jpg,56.4001477965901,56.9178095796702,57.2119193602967,NaN,0,,,,
213,1,0,058.jpg,-0.447280600097656,0.0703715230746411,0.870371281576922,NaN,1,,,57.6708039246997,
214,1,0,027.jpg,0.882138860571558,1.39978947438328,3.19979798717713,NaN,1,,,,
215,1,0,027.jpg,3.21156224557842,3.72921467062281,5.72922402865856,NaN,0,,,,
216,1,0,057.jpg,5.74099402263016,6.25867089931626,8.05865314923562,NaN,1,,,,
217,1,0,049.jpg,8.07041710576482,6.25867089931626,8.58806711583225,NaN,1,,,,
218,1,0,057.jpg,8.59983107236144,9.1174916479531,11.2116144694552,NaN,1,,,,
219,1,0,024.jpg,11.2233805390892,11.7410543970542,14.0351614608317,NaN,1,,,,
220,1,0,030.jpg,14.046926021105,14.5645808611265,16.5645905210343,NaN,1,,,,
221,1,0,022.jpg,16.5763602131337,17.0940132419224,17.1881224791791,NaN,1,,,,
222,1,0,017.jpg,17.1998876431968,17.7175458038115,18.6116632519899,NaN,1,,,,
223,1,0,056.jpg,18.6234564901148,19.1410814447962,20.9410981081372,NaN,1,,,,
224,1,0,023.jpg,20.9528578384568,21.4705169046878,23.2705534915888,NaN,1,,,,
225,1,0,025.jpg,23.2822842421848,23.7999351578685,24.2940838196241,NaN,1,,,,
226,1,0,020.jpg,24.3058094383941,24.8234709196021,25.4234900582945,NaN,1,,,,
227,1,0,050.jpg,25.4352660897085,25.9528925537506,27.6470142885131,NaN,1,,,,
228,1,0,053.jpg,27.6588011873234,28.1764345944242,29.3764378546432,NaN,1,,,,
229,1,0,058.jpg,29.3882018111724,29.9058566511937,31.5058640168735,NaN,1,,,,
230,1,0,018.jpg,31.5294021935839,32.0470706178508,32.6470970014741,NaN,1,,,,
231,1,0,027.jpg,32.6588612598754,33.1764708190786,33.5764649627596,NaN,1,,,,
232,1,0,059.jpg,33.5999989132604,34.1176772993072,36.2117759710396,NaN,1,,,,
233,1,0,051.jpg,36.223540531313,36.7411950694623,38.6353203663158,NaN,1,,,,
234,1,0,060.jpg,38.6471009258116,39.1647412759712,41.564780398598,NaN,1,,,,
235,1,0,029.jpg,41.5765205072297,42.0941889314964,42.2941689475621,NaN,1,,,,
236,1,0,026.jpg,42.305937130301,42.8235880459848,43.2235858121311,NaN,1,,,,
237,1,0,026.jpg,43.2353518817652,43.7530058161701,43.9530009258418,0.658909861286702,1,,,,
238,1,0,048.jpg,43.9647712216855,44.4824384384639,45.682424793844,NaN,1,,,,
239,1,0,019.jpg,45.7059578387284,46.2236102637728,46.7177519824697,NaN,1,,,,
240,1,0,016.jpg,46.7295189577201,47.2471716846367,49.5412730128437,NaN,1,,,,
241,1,0,052.jpg,49.5530411955826,50.0706921112665,50.2706968808459,NaN,1,,,,
242,1,0,054.jpg,50.2824590261424,50.8001117530589,50.8942228015484,NaN,1,,,,
243,1,0,054.jpg,50.9059870599497,51.4236455224365,52.8236906825057,NaN,0,,,,
244,1,0,055.jpg,52.8354319986258,53.3530666132152,55.3530753675067,NaN,1,,,,
245,1,0,021.jpg,55.3766090161354,55.8942735160646,56.694261199682,NaN,1,,,,
246,1,0,046.jpg,56.7177909239732,57.2354641781939,57.6354429263966,NaN,1,,,,
247,1,0,028.jpg,57.6589883480381,58.1766262832207,58.9766272492114,NaN,1,,,,
248,1,0,047.jpg,59.0001539547814,59.5178241902809,60.0119275712184,NaN,1,,,,
249,1,0,020.jpg,60.0236912258755,60.5413481790017,61.8354742607228,NaN,1,,,,
250,1,0,052.jpg,-0.717893258622098,-0.200203401434692,2.09389339869063,NaN,1,61.9531862753237,,62.5649714836502,
251,1,0,017.jpg,2.10565373275438,2.62330947839212,4.22331473096699,NaN,1,,,,
252,1,0,056.jpg,4.23507838562409,4.75273382938963,4.95273014654981,NaN,1,,,,
253,1,0,060.jpg,4.96449531056749,5.48215226369371,6.4821531693101,NaN,1,,,,
254,1,0,030.jpg,6.49391652209499,7.01157649394247,7.10570022106094,NaN,1,,,,
255,1,0,030.jpg,7.11745029147255,7.63510905583155,8.92924630682091,0.835382189726033,1,,,,
256,1,0,025.jpg,8.94100754650106,9.45864940602132,10.5527683031858,NaN,1,,,,
257,1,0,057.jpg,10.564537089669,11.0821904203297,13.5763330446429,NaN,1,,,,
258,1,0,018.jpg,13.5880800963333,14.1057358419711,16.1998728514628,NaN,1,,,,
259,1,0,018.jpg,16.2116407323297,16.7293019116655,17.9292849464524,NaN,0,,,,
260,1,0,058.jpg,17.9410504123422,18.4587233646907,20.7528364659106,NaN,1,,,,
261,1,0,050.jpg,20.7763978867744,21.2940152946528,21.5881908834016,NaN,1,,,,
262,1,0,050.jpg,21.5999186152764,22.1176202454764,23.1175966994509,NaN,0,,,,
263,1,0,049.jpg,23.1293371099548,23.6469756488816,26.0469839805521,NaN,1,,,,
264,1,0,026.jpg,26.0587485408256,26.5764039845911,28.8705403299643,NaN,1,,,,
265,1,0,023.jpg,28.882313040785,29.3999693901669,31.1999869591243,NaN,1,,,,
266,1,0,046.jpg,31.2117234452907,31.729378285312,33.3293844435033,NaN,1,,,,
267,1,0,016.jpg,33.3411480981603,33.8588041456702,34.658805111661,NaN,1,,,,
268,1,0,029.jpg,34.6705687663181,35.1882236063394,37.5882754075952,NaN,1,36.4000819884678,,,
269,1,0,028.jpg,37.600043288462,38.1176558663865,38.4235326222635,NaN,1,,,,
270,1,0,024.jpg,38.4353008050024,38.9529517206861,40.7529593278636,NaN,1,,,,
271,1,0,047.jpg,40.7647241900091,41.2823832562402,42.8824377139707,NaN,1,,,,
272,1,0,048.jpg,42.8941627289963,43.4118344738565,45.5059476354508,NaN,1,,,,
273,1,0,059.jpg,45.5177124975963,46.0353516402674,47.0353528477559,NaN,1,,,,
274,1,0,022.jpg,47.0471222379832,47.5647891528894,49.4588957336715,NaN,1,,,,
275,1,0,055.jpg,49.4706681426201,49.9883401893522,52.0824439929107,NaN,1,,,,
276,1,0,019.jpg,52.0942139868824,52.6118624875892,53.4118999801066,NaN,1,,,,
277,1,0,053.jpg,53.4236497486461,53.9412840613633,55.341290279929,NaN,1,,,,
278,1,0,054.jpg,55.3530569533073,55.8707232644692,58.3648369090589,NaN,1,,,,
279,1,0,054.jpg,58.3765981487389,58.8942735160646,60.2942610185587,0.658977480641738,1,,,,
280,1,0,021.jpg,-0.411941638459211,0.105710484713086,0.905711450703848,NaN,1,,,60.7178325823257,
281,1,0,021.jpg,0.917492613943864,1.43513085099858,3.03513912229471,NaN,0,,,,
282,1,0,027.jpg,3.04691273873175,3.56459142665062,4.45867114081398,NaN,1,,,,
283,1,0,027.jpg,4.47043811606443,4.98813672754318,6.8822182529392,NaN,0,,,,
284,1,0,051.jpg,6.9057519015679,7.42343240071955,8.42340462848449,NaN,1,,,,
285,1,0,055.jpg,8.43516828314159,8.95282372690713,10.1528263833818,NaN,1,,,,
286,1,0,027.jpg,10.1645918492716,10.682259367922,12.4822545983425,NaN,1,,,,
287,1,0,017.jpg,12.4940215735929,13.0116746023816,15.5058588850474,NaN,1,,,,
288,1,0,057.jpg,15.5175642783853,16.0352683235623,16.8352231031186,NaN,1,,,,
289,1,0,052.jpg,16.846990078369,17.3646400884364,19.4587668342762,NaN,1,,,,
290,1,0,026.jpg,19.4705383376083,19.9882034412818,21.8823124370408,NaN,1,,,,
291,1,0,053.jpg,21.894081525396,22.4117333466962,24.8117437914716,NaN,1,23.2706564299818,,,
292,1,0,053.jpg,24.8235098611057,22.4117333466962,25.3411571543239,NaN,0,,,,
293,1,0,024.jpg,25.3529214127253,25.8705777621072,26.764696115902,0.517733930516897,0,,,,
294,1,0,030.jpg,26.7764649023851,27.2941294023143,28.9882620044731,NaN,1,,,,
295,1,0,056.jpg,29.0000172067108,29.5176723486044,30.2117774804002,NaN,1,,,,
296,1,0,019.jpg,30.223540531313,30.7412080499635,31.235313845878,NaN,1,,,,
297,1,0,029.jpg,31.2470793117678,31.7647477360346,33.5647399477339,NaN,1,,,,
298,1,0,060.jpg,33.5882690682807,34.1059242101742,35.7059285571328,NaN,1,,,,
299,1,0,051.jpg,35.7176910043014,36.2353648622664,37.7294727712857,NaN,1,,,,
300,1,0,051.jpg,37.74123461471,38.258886134138,39.9530148119593,0.82369702182018,1,,,,
301,1,0,047.jpg,39.9765469512274,40.4942165829826,40.5883131416103,NaN,1,,,,
302,1,0,048.jpg,40.6001015497812,41.1177515598487,42.0118524050605,NaN,1,,,,
303,1,0,018.jpg,42.0236202859272,42.5412708997389,43.6353897969035,NaN,1,,,,
304,1,0,025.jpg,43.6471600927472,44.1648206683388,44.7648093179471,NaN,1,,,,
305,1,0,059.jpg,44.7765778025581,45.2942462268248,47.0942357216751,NaN,1,,,,
306,1,0,021.jpg,47.1060002819486,47.6236566313305,49.8236659289918,NaN,1,,,,
307,1,0,016.jpg,49.8354332061143,50.3530853292866,51.0472031397115,NaN,1,,,,
308,1,0,028.jpg,51.0589652850081,51.5766225400064,53.4707599117446,NaN,1,,,,
309,1,0,020.jpg,53.4825145102382,54.0001814251443,54.2943552026603,NaN,1,,,,
310,1,0,050.jpg,54.3178224394226,54.8354661101755,56.9295916485266,NaN,1,,,,
311,1,0,049.jpg,56.9413601331378,57.4590083319724,57.7531256594018,NaN,1,,,,
312,1,0,054.jpg,57.7648947477571,58.2825456634409,59.7766680623222,NaN,1,,,,
313,1,0,023.jpg,59.7884365469331,60.3060883682333,61.2002372111122,NaN,1,,,,
314,1,0,022.jpg,61.211974904767,61.7296273298114,63.7296889117238,NaN,1,,,,
315,1,0,046.jpg,63.7414160398544,64.2590506544436,65.5531752268041,NaN,1,,,,
316,1,0,058.jpg,65.5767067623278,66.0943576780116,67.2943621457191,NaN,1,,,,
317,1,0,019.jpg,-0.164878929658244,0.352794928306821,2.55278701925727,NaN,1,,,67.4708939429661,
318,1,0,017.jpg,2.56455731510096,3.08221698507623,3.97632507521894,NaN,1,,,,
319,1,0,056.jpg,3.98808661677117,4.50575836163125,5.5998645801667,NaN,1,,,,
320,1,0,020.jpg,5.61162883856809,6.1292869991828,8.62341271865716,NaN,1,,,,
321,1,0,050.jpg,8.63519840997901,9.15283302456828,9.2469422618251,NaN,1,,,,
322,1,0,050.jpg,9.25870984081962,9.77636679394595,12.2704940227809,NaN,0,,,,
323,1,0,022.jpg,12.282275186021,12.79991402682,13.1999111892221,NaN,1,,,,
324,1,0,022.jpg,13.2116748438791,13.7293330044938,15.42345383364,NaN,0,,,,
325,1,0,051.jpg,15.4352183939134,15.9528729320627,17.447020688202,NaN,1,,,,
326,1,0,051.jpg,17.4587623061943,17.9764361641592,19.6705406922108,NaN,0,,,,
327,1,0,026.jpg,19.6823088749497,20.1999736767509,21.0940790500447,NaN,1,,,,
328,1,0,052.jpg,21.1058472327834,21.6234981484672,23.2235037029143,NaN,1,,,,
329,1,0,053.jpg,23.235271583781,23.752923103209,25.847050150921,NaN,1,,,,
330,1,0,057.jpg,25.8588186355319,23.752923103209,26.3765042665095,NaN,1,,,,
331,1,0,059.jpg,26.3882655061896,26.9059354398171,27.1058813443331,NaN,1,,,,
332,1,0,048.jpg,27.1176443952459,27.6353037633492,30.1294285772071,NaN,1,,,,
333,1,0,047.jpg,30.1411958543297,30.6588558261772,32.2588550413095,NaN,1,,,,
334,1,0,016.jpg,32.2706171866062,32.7882868183613,33.3882709398879,NaN,1,,,,
335,1,0,028.jpg,33.4000367076496,33.9176972832413,34.9176933589038,NaN,1,,,,
336,1,0,021.jpg,34.9294630510033,35.4471136648151,35.7412823105049,NaN,1,,,,
337,1,0,058.jpg,35.7530477763949,36.2706476756903,36.870647494567,NaN,1,,,,
338,1,0,030.jpg,36.8824159791779,37.4000801772352,38.0000706380761,NaN,1,37.6236819885885,,,
339,1,0,060.jpg,38.0118324815005,38.5295217349435,39.3294861744077,NaN,1,,,,
340,1,0,027.jpg,39.3412552627631,39.8589061784469,40.1530189777945,NaN,1,,,,
341,1,0,018.jpg,40.1647907829988,40.6824561885444,41.5765588449888,NaN,1,,,,
342,1,0,018.jpg,41.5883188771804,42.1059851883424,42.40009225212,0.77656452018482,1,,,,
343,1,0,025.jpg,42.4118643591964,42.9295303684862,45.1295653252778,NaN,1,,,,
344,1,0,046.jpg,45.1412900384312,45.658943369092,45.858939082508,NaN,1,,,,
345,1,0,055.jpg,45.8707072652469,46.3883723689203,48.788366210729,NaN,1,,,,
346,1,0,024.jpg,48.8001380159333,49.3177877241287,50.3177892334893,NaN,1,,,,
347,1,0,023.jpg,50.3295589255888,50.8472071244234,50.9413227009948,NaN,1,,,,
348,1,0,049.jpg,50.9530911856057,51.470786174619,52.2707430672804,NaN,1,,,,
349,1,0,049.jpg,52.2825061181932,52.8001621657029,54.6942877644285,NaN,0,,,,
350,1,0,049.jpg,54.7060517209577,55.2237201452247,57.2237153152705,NaN,0,,,,
351,1,0,054.jpg,57.2355182133033,57.7531479979386,59.1531394247704,NaN,1,,,,
352,1,0,029.jpg,59.1649073056374,59.6825564100884,61.3766811635721,NaN,1,,,,
353,1,0,019.jpg,61.3884864765816,61.9061002619947,64.2002296643091,NaN,1,,,,
354,1,0,029.jpg,64.2119915077335,64.7296475552432,64.8237613205818,NaN,1,,,,
355,1,0,022.jpg,64.8355267864715,65.3531952107382,66.0472991350457,NaN,1,,,,
356,1,0,059.jpg,66.0590621859585,66.5767294027369,66.6708313950626,NaN,1,,,,
357,1,0,059.jpg,66.6825959553362,67.2002544178229,67.6944190788008,0.764795431829498,1,,,,
358,1,0,021.jpg,-0.505961521568452,0.0116579994148651,1.81164930549789,NaN,1,,,68.2120666738913,
359,1,0,058.jpg,1.82341296015488,2.34106900766483,4.14107782233077,NaN,1,,,,
360,1,0,024.jpg,4.15284026949939,4.67049269454378,6.87050229407714,NaN,1,,,,
361,1,0,046.jpg,6.88226715622272,7.39992169437187,8.8940449988695,NaN,1,,,,
362,1,0,017.jpg,8.90581499284099,9.42346983286234,9.51757725888638,NaN,1,,,,
363,1,0,052.jpg,9.52934212103196,10.0470135640198,12.3411248540069,NaN,1,,,,
364,1,0,026.jpg,12.3528921311295,12.8705433486855,14.8705521029769,NaN,1,,,,
365,1,0,023.jpg,14.8823181726111,15.3999775407142,16.0941068222796,NaN,1,,,,
366,1,0,050.jpg,16.105858703924,16.6235117327126,18.0235134231966,NaN,1,,,,
367,1,0,047.jpg,18.0352749647489,18.5529358422125,21.0470627691755,NaN,1,20.3412582814842,,,
368,1,0,018.jpg,21.0588267257046,21.5764848863193,23.3764882672872,NaN,1,,,,
369,1,0,025.jpg,23.3882510163278,23.9059106863033,26.0000335078053,NaN,1,,,,
370,1,0,055.jpg,26.0117977662067,26.5294535118444,27.6235718052646,NaN,1,,,,
371,1,0,048.jpg,27.6353414973642,28.1529930167922,29.3529938620341,NaN,1,,,,
372,1,0,048.jpg,29.3647590260518,29.8824138660732,31.2824270276976,NaN,0,,,,
373,1,0,016.jpg,31.3059492051857,31.8236076676726,32.4236026565954,NaN,1,,,,
374,1,0,054.jpg,32.435367820613,32.9530241699949,34.8471464481272,NaN,1,,,,
375,1,0,057.jpg,34.8589149327383,35.3765800364117,36.6706867983171,NaN,1,,,,
376,1,0,056.jpg,36.6824567922886,37.200109217333,38.8001120549311,NaN,1,,,,
377,1,0,053.jpg,38.8118787283092,39.3295329645864,40.1295342324493,0.800088207033696,0,,,,
378,1,0,053.jpg,40.1412957740015,40.6589548402326,40.9530667339639,0.694221654434386,1,,,,
379,1,0,030.jpg,40.9648349167028,41.4824876436194,42.6824887907335,NaN,1,,,,
380,1,0,028.jpg,42.6942572753444,43.211907587284,44.1060271485671,NaN,1,,,,
381,1,0,028.jpg,44.1177914069685,44.6354607368517,46.6354845847491,0.847145240638838,1,,,,
382,1,0,028.jpg,46.6472195615547,47.1648768165533,49.1648828539956,0.611852525809354,1,,,,
383,1,0,049.jpg,49.1884143895195,49.7060659089475,51.4001900586868,NaN,1,,,,
384,1,0,027.jpg,51.4119570339374,51.9296091571096,52.2237518417971,NaN,1,,,,
385,1,0,051.jpg,52.2472661706101,51.9296091571096,52.7649022945602,NaN,1,,,,
386,1,0,020.jpg,52.7766704772989,53.2943238079597,54.6943276115485,NaN,1,,,,
387,1,0,060.jpg,54.7060960961594,55.2237618035772,55.9178645203961,NaN,1,,,,
388,1,0,017.jpg,55.9296281750533,56.4472860337958,58.8473067422233,NaN,1,,,,
389,1,0,047.jpg,-1.24729786718308,-0.729642725289523,1.76448722039459,NaN,1,59.3414750256666,,60.1062091774559,
390,1,0,025.jpg,1.7762505731796,2.29390601694513,2.98802292175378,NaN,1,,,,
391,1,0,016.jpg,2.99978627453879,3.51746224560839,5.51745198195636,NaN,1,,,,
392,1,0,021.jpg,5.54097385757245,6.0586350369083,8.35276232611773,NaN,1,,,,
393,1,0,029.jpg,8.36453171634525,8.88219410316947,10.3763847251498,NaN,1,,,,
394,1,0,049.jpg,10.3880849866616,10.9057386191946,13.1057328232498,NaN,1,,,,
395,1,0,052.jpg,13.1292631512852,13.6469167838181,16.0469266248492,NaN,1,,,,
396,1,0,055.jpg,16.0586899776342,16.5763641374713,17.9763489231163,NaN,1,,,,
397,1,0,055.jpg,17.9881131815177,18.5057704365161,20.3058323806752,NaN,0,,,,
398,1,0,053.jpg,20.3175966390766,20.8351992552209,22.2351994363444,NaN,1,,,,
399,1,0,059.jpg,22.2469673172111,20.8351992552209,22.7646140066852,NaN,1,,,,
400,1,0,022.jpg,22.7763830950405,23.2940331051079,24.3881538135051,NaN,1,,,,
401,1,0,028.jpg,24.3999177700343,24.9175747231604,26.5175790701192,NaN,1,,,,
402,1,0,050.jpg,26.5293662708016,27.0470008853908,28.3411194203088,NaN,1,,,,
403,1,0,030.jpg,28.352883376838,28.8705397262199,29.7646562687821,NaN,1,,,,
404,1,0,023.jpg,29.7881862949453,30.3058411349666,32.7058518816141,NaN,1,,,,
405,1,0,046.jpg,32.7176206680972,33.2352718856532,35.3293971221322,NaN,1,,,,
406,1,0,018.jpg,35.3411634936383,35.8588150130665,38.0588255182163,NaN,1,,,,
407,1,0,051.jpg,38.0705900784897,38.588244918511,39.482361159201,NaN,1,,,,
408,1,0,060.jpg,39.4941278325791,40.0117859931938,41.5059071845865,NaN,1,,,,
409,1,0,048.jpg,41.517674159837,42.0353649226406,44.2353334675656,NaN,1,,,,
410,1,0,054.jpg,44.2471022540487,44.7647531697326,47.16476391638,NaN,1,,,,
411,1,0,027.jpg,47.1765333066076,47.6941866372683,49.3883050514373,NaN,1,,,,
412,1,0,020.jpg,49.4000756491532,49.9177253573487,50.4118414169152,NaN,1,,,,
413,1,0,058.jpg,50.4236102033983,50.9412719864783,52.6353843632053,NaN,1,,,,
414,1,0,056.jpg,52.6471531496884,53.1648209702109,53.2589184344549,NaN,1,,,,
415,1,0,026.jpg,53.2706854097053,53.7883535321,54.788363795752,NaN,1,53.3766416183244,,,
416,1,0,019.jpg,54.8001051118722,55.317758442533,57.0118976858785,NaN,1,,,,
417,1,0,024.jpg,-0.929594365375806,-0.411941336587006,1.98806971193244,NaN,1,,,57.964908271628,
418,1,0,057.jpg,1.99983849841556,2.51748398040127,4.61163185728947,NaN,1,,,,
419,1,0,022.jpg,4.62337951272411,5.14103405087326,6.34103670734794,NaN,1,,,,
420,1,0,049.jpg,6.35283356793821,6.87045308892152,8.76458170636852,NaN,1,,,,
421,1,0,050.jpg,8.77634596476969,9.29400623848937,10.2940014085355,NaN,1,,,,
422,1,0,028.jpg,10.3057647613202,10.8234235256793,13.3175480376651,NaN,1,,,,
423,1,0,028.jpg,13.3293147110435,13.8469668342159,16.3410964780278,NaN,0,,,,
424,1,0,028.jpg,16.352860434557,16.8705152745783,19.0705254778561,0.929501992506857,1,,,,
425,1,0,060.jpg,19.0822897362573,19.5999445762786,20.599982914038,NaN,1,,,,
426,1,0,016.jpg,20.6117230226698,21.1293784664354,22.223484986843,NaN,1,,,,
427,1,0,016.jpg,22.2352501508606,22.7529083114753,23.3529051116309,1.01185421629316,1,,,,
428,1,0,025.jpg,23.3764378546432,23.8941017508282,25.8940969208743,NaN,1,,,,
429,1,0,026.jpg,25.9058593680429,26.4235148118084,28.6235232038534,NaN,1,,,,
430,1,0,020.jpg,28.635288367871,29.1529432078923,31.447070497102,NaN,1,,,,
431,1,0,024.jpg,31.4588347555032,31.9764859730592,33.3764943047297,NaN,1,,,,
432,1,0,051.jpg,33.3882624874686,33.9059124975361,35.4000554237214,NaN,1,,,,
433,1,0,059.jpg,35.4118124371917,35.9294582210496,36.2235680016761,NaN,1,,,,
434,1,0,054.jpg,36.2353328638217,36.7529898169478,39.047116502413,NaN,1,,,,
435,1,0,027.jpg,39.0588801570702,39.5765609580938,40.670653894256,NaN,1,,,,
436,1,0,023.jpg,40.6824226807391,41.2000763132721,41.6941917690945,NaN,1,,,,
437,1,0,030.jpg,41.7177193802806,42.23537391843,44.5295009057672,NaN,1,,,,
438,1,0,052.jpg,44.5412699941226,45.0589215135506,46.9530449991714,NaN,1,,,,
439,1,0,058.jpg,46.9648309923655,47.4824743612462,49.6824736971275,NaN,1,,,,
440,1,0,021.jpg,49.6942418798665,50.2119078891562,50.9060112097193,NaN,1,,,,
441,1,0,029.jpg,50.9177691288062,51.4354287987815,53.1295529485208,NaN,1,,,,
442,1,0,048.jpg,53.1413211312597,53.6589768768974,55.3530968004272,NaN,1,,,,
443,1,0,053.jpg,55.3766464482783,55.8943097407191,56.1883950697038,NaN,1,,,,
444,1,0,046.jpg,56.2001641580591,56.7178434497221,57.7178141681266,NaN,1,57.6708458849246,,,
445,1,0,047.jpg,57.7296071043793,58.2472531901092,58.9413528882069,NaN,1,57.8238503728574,,,
446,1,0,056.jpg,-0.411924733620481,0.105748218728195,1.9057343929851,NaN,1,,,59.3649338100095,
447,1,0,019.jpg,1.91751072627108,2.43515198204705,3.12926918872768,NaN,1,,,,
448,1,0,055.jpg,3.14103706959463,3.65869462646492,5.95281467074369,NaN,1,,,,
449,1,0,018.jpg,5.97634499877904,6.49401764925551,8.58812537715153,NaN,1,,,,
450,1,0,017.jpg,8.59989537112324,9.11754628680683,10.1175468905512,NaN,1,,,,
451,1,0,057.jpg,10.1410732942491,10.6587438316205,11.858735620699,NaN,1,,,,
452,1,0,059.jpg,11.8704986716118,12.3881559266101,14.1881620244269,NaN,1,,,,
453,1,0,051.jpg,14.1999241697233,14.7175904808853,16.811704849968,NaN,1,,,,
454,1,0,019.jpg,16.8234697121136,17.3411396457411,18.835246347272,NaN,1,,,,
455,1,0,021.jpg,18.8470133225223,19.3646657475667,20.7646683436669,NaN,1,,,,
456,1,0,053.jpg,20.7764344133011,21.2941076675218,22.0940890118247,NaN,1,,,,
457,1,0,046.jpg,22.1058529683539,22.6235238075976,23.7176282149003,NaN,1,,,,
458,1,0,052.jpg,23.7293933789181,24.2470506339164,26.0470546186284,NaN,1,,,,
459,1,0,020.jpg,26.0588234051115,26.5764737170512,28.7764815053517,NaN,1,,,,
460,1,0,022.jpg,28.7882493862185,29.3059012075187,31.1059060978471,NaN,1,,,,
461,1,0,022.jpg,31.1176936004017,29.3059012075187,31.6353218756765,NaN,0,,,,
462,1,0,022.jpg,31.6470846247171,32.1647418797154,33.8588639163502,NaN,0,,,,
463,1,0,048.jpg,33.8706284766236,34.3882833166449,35.4824052325307,NaN,1,,,,
464,1,0,056.jpg,35.4941691890599,36.0118255384418,37.1059453412227,NaN,1,,,,
465,1,0,018.jpg,37.1177065809029,37.6353629302848,37.9294790502258,NaN,1,,,,
466,1,0,023.jpg,37.9412460254762,38.45889694116,40.5530209701506,NaN,1,,,,
467,1,0,025.jpg,40.5647894547617,41.0824397667011,41.8824431476689,NaN,1,,,,
468,1,0,027.jpg,41.9059719663437,42.4236422018432,43.0236257196254,NaN,1,,,,
469,1,0,024.jpg,43.0471590663819,43.5648126989149,44.364809740568,NaN,1,,,,
470,1,0,060.jpg,44.3765770176906,44.8942276315024,45.7883484002741,NaN,1,,,,
471,1,0,016.jpg,45.8001180923736,46.3177813848142,47.7177755284952,NaN,1,,,,
472,1,0,029.jpg,47.7413049509141,48.2589570740863,49.6589605758029,NaN,1,48.5061040052092,,,
473,1,0,054.jpg,49.6707613607309,50.1883796742256,51.188408050205,NaN,1,,,,
474,1,0,049.jpg,51.2001496681974,51.7178020932417,52.7178026969859,NaN,1,,,,
475,1,0,058.jpg,52.7295729928296,53.2472356815263,54.5413524052115,NaN,1,,,,
476,1,0,047.jpg,54.5531332665794,55.0707621455983,56.7648841822329,NaN,1,,,,
477,1,0,047.jpg,56.7766487425065,57.2943035825278,59.6943125179425,NaN,0,,,,
478,1,0,050.jpg,59.7060825119142,60.2237334275981,62.0237407329032,NaN,1,,,,
479,1,0,050.jpg,62.0355061987932,62.5532063196324,63.5531842829678,NaN,0,,,,
480,1,0,017.jpg,63.5649298252977,64.0825834578304,66.176704769972,NaN,1,,,,
481,1,0,057.jpg,66.188483518235,66.7061374526402,67.0002387808472,NaN,1,,,,
482,1,0,055.jpg,67.0237721276037,67.5414363256609,67.6355377142424,NaN,1,,,,
483,1,0,026.jpg,67.647304991365,68.1649706987828,68.3649534316974,NaN,1,,,,
484,1,0,026.jpg,68.3767182938429,68.8943755488413,69.2943699943942,NaN,0,,,,
485,1,0,028.jpg,-1.08257560915513,-0.564925297215723,0.235077178135725,NaN,1,69.9297561688322,,70.3885782457064,
486,1,0,030.jpg,0.246845662746637,0.764509257059672,1.45863974611348,NaN,1,,,,
487,1,0,018.jpg,1.47039857081677,0.764509257059672,1.98802443111458,NaN,1,,,,
488,1,0,026.jpg,1.99979019887655,2.51744624638627,3.91744944623088,NaN,1,,,,
489,1,0,056.jpg,3.92921491212064,4.44688665698072,4.64686576742997,NaN,1,,,,
490,1,0,030.jpg,4.65863032770335,5.17628396023633,5.47040641949184,NaN,1,,,,
491,1,0,027.jpg,5.48216554606711,5.99981978234428,7.59982382743078,NaN,1,,,,
492,1,0,054.jpg,7.61158808583195,8.12924383146969,10.3292522235147,NaN,1,,,,
493,1,0,048.jpg,10.3410152744275,10.8586858117992,13.352800060133,NaN,1,,,,
494,1,0,050.jpg,13.364563412918,13.8822318371847,15.2822223584001,NaN,1,,,,
495,1,0,052.jpg,15.2939917486276,15.8116402493345,18.305771100635,NaN,1,,,,
496,1,0,055.jpg,18.3175335478036,18.8351865765922,20.2352175486717,NaN,1,,,,
497,1,0,023.jpg,20.2469603741524,20.7646251759538,22.0587325416034,NaN,1,,,,
498,1,0,046.jpg,22.0822658883599,22.5999155965553,23.3999552021774,NaN,1,,,,
499,1,0,016.jpg,23.4116820284357,23.9293374722015,25.0234572749823,NaN,1,,,,
500,1,0,020.jpg,25.0470069228334,25.5646382168295,26.7646423826648,NaN,1,,,,
501,1,0,060.jpg,26.776406339194,27.2940654054248,27.3881764539144,NaN,1,,,,
502,1,0,021.jpg,27.3999461460139,27.9175958542091,30.2117210303138,NaN,1,,,,
503,1,0,019.jpg,30.2352486415,30.7529065002427,30.8470196618368,NaN,1,,,,
504,1,0,025.jpg,30.8587887501922,31.3882226403487,32.4823243308024,NaN,1,,,,
505,1,0,025.jpg,32.494089192948,33.0117555041099,35.105870778809,0.823631213698036,1,,,,
506,1,0,029.jpg,35.1411889112712,35.6588343932567,36.6588205071391,NaN,1,,,,
507,1,0,059.jpg,36.6705874823897,37.1882652646921,38.6823620044431,NaN,1,,,,
508,1,0,057.jpg,38.6941247534837,39.2117922721343,41.3059060374726,NaN,1,,,,
509,1,0,047.jpg,41.317672710851,41.8353429463505,44.1529809419076,NaN,1,,,,
510,1,0,058.jpg,44.1765378346895,44.6941793923374,47.1059688872481,NaN,1,,,,
511,1,0,028.jpg,47.1177086940077,47.6353593078195,48.0471252567047,NaN,1,,,,
512,1,0,049.jpg,48.0588979675254,48.5765413364061,49.1765580601216,NaN,1,,,,
513,1,0,053.jpg,49.2000874825405,49.717737492608,52.0236160597176,NaN,1,,,,
514,1,0,022.jpg,52.0471530289396,52.5648006240301,54.0706863756961,NaN,1,,,,
515,1,0,024.jpg,54.0942224393018,54.6118715437531,55.9059952104969,NaN,1,,,,
516,1,0,017.jpg,55.9295294628701,56.4471927553107,57.9530619040102,NaN,1,,,,
517,1,0,017.jpg,57.9648276717721,58.4824936810619,60.5766146913313,0.894256611225728,1,,,,
518,1,0,051.jpg,60.6001643391824,61.1177923125852,62.4119150737126,NaN,1,,,,
519,1,0,057.jpg,62.4236796339862,62.9413344740076,63.4354493260857,NaN,1,,,,
520,1,0,024.jpg,63.4472138863591,63.9648922724059,65.0589933591152,NaN,1,,,,
521,1,0,021.jpg,65.0707530894349,65.5884082313282,66.6943070842444,NaN,1,,,,
522,1,0,021.jpg,66.7060583621446,67.223725578923,69.7178401291289,0.623615576722159,1,,,,
523,1,0,023.jpg,69.729603481914,70.2472764342624,71.847263272638,NaN,1,,,,
524,1,0,050.jpg,-1.42373004663023,-0.906070980399136,0.893964700885363,NaN,1,72.6826702158778,,73.2944158789567,
525,1,0,055.jpg,0.905715073169176,1.42334395218813,3.22333133393363,NaN,1,,,,
526,1,0,055.jpg,3.23509619607921,3.75275013048417,4.64687029551169,1.20010438737927,1,,,,
527,1,0,056.jpg,4.65863817637842,5.18805667105676,6.48217611159112,NaN,1,,,,
528,1,0,030.jpg,6.49394248309727,7.01162147288846,8.41159629675349,NaN,1,,,,
529,1,0,030.jpg,8.42336206451546,8.94109720252072,9.3410143688111,0.600108190967831,1,,,,
530,1,0,047.jpg,9.35277802346809,9.870447051479,11.2705042864332,NaN,1,,,,
531,1,0,026.jpg,11.293978164382,11.8116188164138,13.6234302272403,NaN,1,,,,
532,1,0,027.jpg,13.6351893538156,14.152826987126,15.2469329037895,NaN,1,,,,
533,1,0,060.jpg,15.2587016902726,15.7763661902018,17.8705152745783,NaN,1,,,,
534,1,0,053.jpg,17.8822674580949,18.3998954314975,20.3060482192411,NaN,1,,,,
535,1,0,052.jpg,20.317791346594,20.8354422622779,21.7295938220059,NaN,1,,,,
536,1,0,025.jpg,21.7531051320977,22.2943072049932,23.4590131619264,NaN,1,,,,
537,1,0,051.jpg,23.470760817361,23.9884105255562,24.9884207892085,NaN,1,,,,
538,1,0,019.jpg,25.0119453816735,25.5295893542984,27.5296125984519,NaN,1,,,,
539,1,0,016.jpg,27.5531293422418,28.0707763335879,29.964996116415,NaN,1,,,,
540,1,0,059.jpg,29.9764340510544,30.4943388411914,31.670794566664,NaN,1,,,,
541,1,0,017.jpg,31.6825666737404,32.2943603344863,34.0002170460546,NaN,1,,,,
542,1,0,028.jpg,34.0119900587472,34.5296391631985,36.9649441944105,NaN,1,,,,
543,1,0,046.jpg,36.9884760318064,37.5061372111422,39.5061399279914,NaN,1,37.7180127999816,,,
544,1,0,018.jpg,39.5296738784923,40.04731966235,41.8470906017851,NaN,1,,,,
545,1,0,022.jpg,41.8588524452093,42.3765090964635,42.5765039042631,NaN,1,,,,
546,1,0,022.jpg,42.588269973897,43.1061711415687,44.1059251157906,NaN,0,,,,
547,1,0,029.jpg,44.1294503119998,44.6471075669981,46.1412305696235,NaN,1,,,,
548,1,0,049.jpg,46.1529996579789,46.6706650635244,47.7647694708271,NaN,1,,,,
549,1,0,048.jpg,47.7883001007347,48.3059540351396,48.4706557658631,NaN,1,,,,
550,1,0,054.jpg,48.4941839807937,49.0120757904294,49.5062135847888,NaN,1,,,,
551,1,0,058.jpg,49.5297381772539,50.0471572551492,52.1415188574986,NaN,1,,,,
552,1,0,020.jpg,52.2827847461601,50.0471572551492,52.8003324215788,NaN,1,,,,
553,1,0,026.jpg,52.8121099623536,53.3297735566664,55.5297753075247,NaN,1,,,,
554,1,0,026.jpg,55.5415371509489,56.0591799160854,56.2944958750684,NaN,0,,,,
555,1,0,053.jpg,56.3062722083546,56.8238986723966,58.5415416790308,NaN,1,,,,
556,1,0,053.jpg,-1.64744234317959,-1.12978418256489,0.27023411088544,NaN,0,,,60.2005617236414,
557,1,0,024.jpg,0.281963352121011,0.799399334855025,1.30552688608941,NaN,1,,,,
558,1,0,025.jpg,1.31730563435258,1.83494055081405,3.34081966129361,NaN,1,,,,
559,1,0,051.jpg,3.35256792047244,3.87024419341424,4.2467668741233,NaN,1,,,,
560,1,0,050.jpg,4.2584789086477,4.77612469250562,6.52906319119279,NaN,1,,,,
561,1,0,023.jpg,6.54085824055051,7.0938140063231,8.59966202397413,NaN,1,,,,
562,1,0,029.jpg,8.61142809360808,9.12911010212042,9.22320032143352,NaN,1,,,,
563,1,0,058.jpg,9.23498239028982,9.75261821236768,9.90556866519091,NaN,1,,,,
564,1,0,027.jpg,9.91731360377662,10.4349986310099,10.7291044872989,NaN,1,,,,
565,1,0,028.jpg,10.740848218396,10.4349986310099,11.2585175482793,NaN,1,,,,
566,1,0,028.jpg,11.2702905609719,11.7879321186201,12.99968393989,NaN,0,,,,
567,1,0,057.jpg,13.0112429252495,13.529126282466,15.6232331047459,NaN,1,,,,
568,1,0,057.jpg,15.6350115511368,16.1524511563364,17.7524195805124,1.55285343112382,1,,,,
569,1,0,057.jpg,17.764186857635,18.2818377733188,19.5759602325745,1.00009237286895,1,,,,
570,1,0,021.jpg,19.5877275096968,20.1053778216365,22.3054061372413,NaN,1,,,,
571,1,0,054.jpg,22.3171519814434,22.834802595255,23.0348043461133,NaN,1,,,,
572,1,0,055.jpg,23.0465676988983,23.5642376325256,25.8583492243849,NaN,1,,,,
573,1,0,019.jpg,25.8701246520548,26.3877692284241,26.5877797335738,NaN,1,,,,
574,1,0,017.jpg,26.5995403695097,27.2466678600679,28.411323706229,NaN,1,,,,
575,1,0,046.jpg,28.4230764934898,28.9407289185342,29.2348495665569,NaN,1,,,,
576,1,0,016.jpg,29.2466050706669,29.7642753061664,31.1642673367423,NaN,1,,,,
577,1,0,018.jpg,31.1760309913993,29.7642753061664,31.693681303339,NaN,1,,,,
578,1,0,059.jpg,31.7054522029268,32.2231176084724,34.1172220761498,NaN,1,,,,
579,1,0,052.jpg,34.1289950888424,34.6466547588177,36.8466537928271,NaN,1,,,,
580,1,0,020.jpg,36.8584147306351,37.376088286728,39.6702071235179,NaN,1,,,,
581,1,0,060.jpg,39.6819753062568,40.199629542534,42.7408473127798,NaN,1,,,,
582,1,0,030.jpg,42.7760987315032,43.2937553827574,44.5878718045706,NaN,1,,,,
583,1,0,030.jpg,44.599634251739,45.1173062984712,45.811413845244,0.88244194018057,1,,,,
584,1,0,047.jpg,45.8232025552873,46.3408419998304,46.540824430873,NaN,1,,,,
585,1,0,056.jpg,46.5761437708236,47.0937717442262,48.4586137851111,NaN,1,47.6468250146936,,,
586,1,0,048.jpg,48.4703925333743,48.9879015691615,50.4937990938404,NaN,1,,,,
587,1,0,049.jpg,50.5055588241598,51.0232067211225,52.9173531490244,NaN,1,,,,
588,1,0,022.jpg,52.9290983894821,53.4467490032937,53.6467770170266,NaN,1,,,,
589,1,0,047.jpg,53.6585261818218,54.1761840405645,55.8702867573834,NaN,1,,,,
590,1,0,021.jpg,55.8820498082962,56.3997248737496,57.693827107573,NaN,1,,,,
591,1,0,018.jpg,57.7055886491253,58.2232637145787,58.6232436702699,NaN,1,,,,
592,1,0,018.jpg,58.6350085324154,59.1526778622986,61.552675930317,NaN,0,,,,
593,1,0,051.jpg,61.5644407924626,62.0820886894253,63.5762138051555,NaN,1,,,,
594,1,0,051.jpg,63.5879789691733,64.1056482990564,65.199755121336,0.988345924922442,1,,,,
595,1,0,023.jpg,65.2115175685046,65.7291923320859,68.1291819476851,NaN,1,,,,
596,1,0,020.jpg,68.1409483191912,68.6585998386192,70.3527478362562,NaN,1,,,,
597,1,0,050.jpg,70.3762534107777,70.8939227406609,71.9880425434417,NaN,1,,,,
598,1,0,048.jpg,71.9997923119813,72.5174845841455,74.6115711809932,NaN,1,,,,
599,1,0,017.jpg,74.6233351375224,75.1409920906485,76.4351121349273,NaN,1,,,,
600,1,0,026.jpg,76.458643670451,76.9762954917512,78.3763005028284,NaN,1,,,,
601,1,0,026.jpg,-1.48259269511732,-0.96490736601163,0.729208029436222,0.87068190798891,1,,,79.8705125577294,
602,1,0,060.jpg,0.952860253433755,1.47038468469918,2.37625310890553,NaN,1,,,,
603,1,0,055.jpg,2.39978615379005,2.91745246495202,3.51743719022261,NaN,1,,,,
604,1,0,055.jpg,3.52920054300762,4.04685659051756,5.54097717816603,NaN,0,,,,
605,1,0,028.jpg,5.55274656839333,6.07039748407715,8.27040617799412,NaN,1,,,,
606,1,0,028.jpg,8.28216983265133,8.79982557828907,9.79982346518409,NaN,0,,,,
607,1,0,057.jpg,9.81159255353941,10.3292597703178,10.529241295744,NaN,1,,,,
608,1,0,049.jpg,10.541004648529,11.0586652241204,12.1527798950754,NaN,1,,,,
609,1,0,053.jpg,12.1645492853027,12.6821995972423,13.3763183132835,NaN,1,,,,
610,1,0,046.jpg,13.3880864960224,13.9057365060899,14.9057419397882,NaN,1,,,,
611,1,0,024.jpg,14.9292701547186,15.446919862914,17.5410472124979,NaN,1,,,,
612,1,0,016.jpg,17.5528144896205,18.0704663109204,19.0704687258974,NaN,1,,,,
613,1,0,019.jpg,19.0822360030199,19.5998845037268,20.5998869187038,NaN,1,,,,
614,1,0,029.jpg,20.6116554033149,21.1293060171265,22.0234252765376,NaN,1,,,,
615,1,0,025.jpg,22.0351925536602,22.5528591666941,22.8469804184613,NaN,1,,,,
616,1,0,030.jpg,22.8587389412924,23.3763964981626,23.9763776009681,NaN,1,,,,
617,1,0,027.jpg,23.9999027971774,24.5175814850961,24.7175578786964,NaN,1,,,,
618,1,0,022.jpg,24.7293218352256,25.2469781846075,26.3410973836442,NaN,1,,,,
619,1,0,059.jpg,26.3528652645109,26.87051406709,27.4705147915831,NaN,1,,,,
620,1,0,056.jpg,27.4823025960097,27.9999329843895,28.6940517004307,NaN,1,,,,
621,1,0,058.jpg,28.7058370898803,29.2234683838765,30.3175909035065,NaN,1,,,,
622,1,0,052.jpg,30.3293593881174,30.8470256992794,31.14112612187,NaN,1,,,,
623,1,0,054.jpg,31.1646513180795,31.6823230629395,32.882323002565,NaN,1,,,,
624,1,0,053.jpg,32.8940754879538,33.4117312335914,35.2117352183034,NaN,1,,,,
625,1,0,054.jpg,35.2235012879376,35.7411588448078,36.3411547393471,NaN,1,,,,
626,1,0,055.jpg,36.3529192996205,36.8705750452582,38.8705813845729,NaN,1,,,,
627,1,0,055.jpg,38.8823444354857,39.4000001811235,39.4941145502062,NaN,0,,,,
628,1,0,055.jpg,39.5058791104796,40.0235514590838,41.0235321392681,NaN,0,39.5883025760861,,,
629,1,0,060.jpg,41.0352997182629,40.0235514590838,41.5529467096092,NaN,1,,,,
630,1,0,030.jpg,41.5647127792431,42.0823796941493,42.5764845844474,NaN,1,,,,
631,1,0,024.jpg,42.588249446593,42.0823796941493,43.1059169652435,NaN,1,,,,
632,1,0,058.jpg,43.1176794124121,43.6353182532112,44.0353317167076,NaN,1,,,,
633,1,0,046.jpg,44.0470805796308,44.5647387402455,44.8588599920126,NaN,1,,,,
634,1,0,016.jpg,44.8706233447974,45.3882676192948,45.9882689475321,NaN,1,,,,
635,1,0,051.jpg,46.0118004830558,46.5294501912513,46.9294521836073,NaN,1,,,,
636,1,0,019.jpg,46.9412146307757,47.4588706782856,47.7529837795055,NaN,1,,,,
637,1,0,019.jpg,47.7647483397789,48.2824068022658,49.7765307105074,NaN,0,,,,
638,1,0,047.jpg,49.8000568123332,50.317707728017,52.6118371303312,NaN,1,,,,
639,1,0,047.jpg,52.6236047093259,53.1412580399867,55.5412675791456,NaN,0,55.188408050205,,,
640,1,0,021.jpg,55.5530324412912,56.07068547008,56.5648024352629,NaN,1,,,,
641,1,0,059.jpg,56.5765944658992,57.0942197224529,58.2942241901603,NaN,1,,,,
642,1,0,057.jpg,-0.258951942260182,0.258669389955685,1.1645353991853,NaN,1,,,58.5648715639784,
643,1,0,027.jpg,1.17629905384229,1.69396898746959,2.9880736362702,0.658948199046108,0,,,,
644,1,0,027.jpg,2.99983759279939,3.51749726277467,4.1174928554417,0.51773876047082,1,,,,
645,1,0,027.jpg,4.12925801945948,4.64692553810983,4.74105107646096,0.458904487962855,1,,,,
646,1,0,052.jpg,4.75281261801319,5.27044240264854,6.36456733725549,NaN,1,,,,
647,1,0,029.jpg,6.37634699113505,6.8939834169571,7.29401137031527,NaN,1,,,,
648,1,0,020.jpg,7.3175133223715,6.8939834169571,7.83515970997337,NaN,1,,,,
649,1,0,056.jpg,7.84692366650256,8.36458846830396,10.76459046066,NaN,1,,,,
650,1,0,048.jpg,10.7763619639923,11.2940071441058,12.3881305693521,NaN,1,,,,
651,1,0,023.jpg,12.3999035820448,12.9175463471813,15.411677500354,NaN,1,,,,
652,1,0,023.jpg,15.4234402493948,15.9410941837998,17.8352182731649,1.27070955947488,1,,,,
653,1,0,050.jpg,17.8823184744833,15.9410941837998,18.3999271280702,NaN,1,,,,
654,1,0,017.jpg,18.4116980276583,18.9293486414699,20.6234712818487,NaN,1,,,,
655,1,0,049.jpg,20.6470019117562,21.1646510162072,22.9646631514665,NaN,1,,,,
656,1,0,022.jpg,22.976425296763,23.49410941838,25.094084785615,1.97656657291532,0,,,,
657,1,0,025.jpg,25.1058541758425,25.6235035821655,27.0235094988591,0.764788488770591,0,,,,
658,1,0,028.jpg,27.0470380156619,27.5647091567778,28.0588049909122,NaN,1,,,,
659,1,0,018.jpg,28.0706018515025,28.5882409941737,30.5882313342659,NaN,1,28.7765346348451,,,
660,1,0,018.jpg,30.6000061581913,31.1176676393993,31.6117704165927,NaN,0,,,,
661,1,0,026.jpg,31.6235530891934,32.1411877037826,33.0353075669379,0.376513624545396,0,,,,
662,1,0,025.jpg,33.0470706178508,33.564747494537,35.8588539545701,NaN,1,,,,
663,1,0,016.jpg,35.8706484001834,36.3882745623534,38.5882817469098,NaN,1,,,,
664,1,0,056.jpg,38.600045703439,39.1176990340998,40.1177014490768,NaN,1,,,,
665,1,0,047.jpg,40.1294648018618,40.6588872208779,41.4471200041296,NaN,1,,,,
666,1,0,054.jpg,41.4588878849966,41.9765397062965,43.4706621051778,1.11773495688203,0,,,,
667,1,0,030.jpg,43.4824299860445,44.0000935803573,46.3177376133569,NaN,1,,,,
668,1,0,048.jpg,46.3295006642697,46.8471561080353,49.1412830953727,NaN,1,,,,
669,1,0,048.jpg,49.1530476556461,49.6707034012838,51.1648393844105,1.08244067231749,1,,,,
670,1,0,029.jpg,51.1765897566943,51.6942427854829,52.4942449589621,NaN,1,,,,
671,1,0,018.jpg,52.5060065005143,53.0236909240034,55.2236727513018,NaN,1,,,,
672,1,0,018.jpg,55.2354361040868,55.7530891328754,56.8472098412726,0.564791869738428,1,,,,
673,1,0,050.jpg,56.8589710809529,57.3766464482783,59.6707571345212,NaN,1,,,,
674,1,0,050.jpg,59.6825204873062,57.3766464482783,60.2001692898853,NaN,0,,,,
675,1,0,021.jpg,60.2472326628051,60.7651314154996,62.0590042265117,0.329729785208883,0,,,,
676,1,0,053.jpg,62.0707823710304,62.5884390222845,64.3884330452165,NaN,1,,,,
677,1,0,027.jpg,64.400219944027,64.9178654260127,65.3296114513378,NaN,1,,,,
678,1,0,057.jpg,65.3531432887339,65.8708089961515,66.7060900587173,NaN,1,,,,
679,1,0,058.jpg,66.7178597508168,67.235526665723,67.63550601767,NaN,1,,,,
680,1,0,055.jpg,67.6590363457053,68.2120213930734,68.9766939629501,NaN,1,,,,
681,1,0,055.jpg,68.9884549007581,69.5061127595006,70.5767309120977,0.647163715212628,1,,,,
682,1,0,020.jpg,-0.435478305809056,0.0821644593274868,1.48215890488041,NaN,1,,,71.0238171065498,
683,1,0,020.jpg,1.49391712583929,2.0115743808376,2.10568663681556,NaN,0,,,,
684,1,0,059.jpg,2.12922149293263,2.64688720035042,4.04687349535607,NaN,1,,,,
685,1,0,052.jpg,4.05864077247861,4.57629229190661,5.27040949858747,NaN,1,,,,
686,1,0,052.jpg,5.28217375698864,5.79983161573136,6.39982901963094,0.753055926942125,1,,,,
687,1,0,046.jpg,6.41159599488151,6.92926321165965,7.5292455219535,NaN,1,,,,
688,1,0,022.jpg,7.5410097803549,8.05868816640145,8.4586629902667,NaN,1,,,,
689,1,0,051.jpg,8.47042936177286,8.98808239056143,11.3880913259763,NaN,1,,,,
690,1,0,017.jpg,11.3998595087153,11.9175252161328,14.3175217747907,NaN,1,,,,
691,1,0,017.jpg,14.3292848257036,14.8469399675971,16.9410646003319,0.894255403737361,1,,,,
692,1,0,026.jpg,16.9528270475005,17.4704876230921,19.2704891928272,NaN,1,,,,
693,1,0,023.jpg,19.2940225395837,19.8116716440347,20.211694465567,NaN,1,,,,
694,1,0,060.jpg,20.2234394041527,20.7410906217087,21.6587537934006,NaN,1,,,,
695,1,0,049.jpg,21.6705156368248,22.1881731936953,22.5884088350724,NaN,1,,,,
696,1,0,019.jpg,22.6119403705964,22.1881731936953,23.1295777020348,NaN,1,,,,
697,1,0,024.jpg,23.1411031795888,23.6590022341557,24.5058561681983,NaN,1,,,,
698,1,0,024.jpg,24.5176210303439,25.035255041189,26.8352605352616,1.04711137058689,1,,,,
699,1,0,024.jpg,26.8470112094174,27.3649045284139,29.0002146310776,0.776856128653208,1,,,,
700,1,0,028.jpg,29.0117476554346,29.6002153555705,30.988447655827,NaN,1,,,,
701,1,0,028.jpg,31.0002167441824,31.60002306303,32.6355114513678,NaN,0,,,,
702,1,0,021.jpg,32.6473155568892,33.1649383984657,33.8708361646422,NaN,1,,,,
703,1,0,029.jpg,33.8825756695296,34.4002453012849,35.8119982696689,NaN,1,,,,
704,1,0,054.jpg,35.8237860740958,36.341420990557,38.2355405518404,NaN,1,,,,
705,1,0,047.jpg,38.2473208094641,38.7649744419969,40.6590855508607,NaN,1,,,,
706,1,0,022.jpg,40.6708658084845,41.1885167241683,42.6238199441475,NaN,1,,,,
707,1,0,050.jpg,42.635602013004,43.1532435706522,45.0591276922087,NaN,1,,,,
708,1,0,052.jpg,45.0708708195616,45.6355953718173,47.2944807814624,NaN,1,,,,
709,1,0,053.jpg,47.3061825523348,47.8238579196604,48.1179550216577,NaN,1,,,,
710,1,0,049.jpg,48.1297552028414,48.6471667339338,49.9414914475101,NaN,1,,,,
711,1,0,051.jpg,49.9532551021671,50.4706717650856,51.3650765955224,NaN,1,,,,
712,1,0,026.jpg,51.3768100629675,51.8944582618021,52.0944455227987,NaN,1,,,,
713,1,0,056.jpg,52.1179846051257,52.6356349170651,52.9297422827146,NaN,1,,,,
714,1,0,046.jpg,52.9415077486044,53.4591825121859,54.0474165633007,NaN,1,,,,
715,1,0,024.jpg,54.059158181293,54.6356385395306,56.2827129005957,NaN,1,,,,
716,1,0,048.jpg,56.2944898376261,56.8121217353662,57.9062611598349,NaN,1,,,,
717,1,0,059.jpg,57.91800458906,58.4354206482342,60.4827837801695,NaN,1,60.1534500511823,,,
718,1,0,060.jpg,-0.894331173639557,-0.376697766538655,1.09392720836809,NaN,1,,,61.3887213330913,
719,1,0,057.jpg,1.10567214695379,-0.376697766538655,1.62329619601883,NaN,1,,,,
720,1,0,027.jpg,1.63508641542262,2.15272797307057,3.45837077805436,NaN,1,,,,
721,1,0,020.jpg,3.47013624394413,3.98779229145384,4.68190829064611,NaN,1,,,,
722,1,0,018.jpg,4.69367164343112,5.21133131340639,7.68192549735704,NaN,1,,,,
723,1,0,030.jpg,7.70546729653302,8.24690362219371,10.5174912253322,NaN,1,,,,
724,1,0,028.jpg,10.5292388807668,11.0466519212198,12.0466537324526,NaN,1,,,,
725,1,0,055.jpg,12.0584201039587,11.0466519212198,12.576069510282,NaN,1,,,,
726,1,0,058.jpg,12.5878337686831,13.1055209090214,14.7996109472112,NaN,1,,,,
727,1,0,017.jpg,14.8113996572545,15.3290499691939,17.4233964779373,NaN,1,,,,
728,1,0,025.jpg,17.5645778424052,18.0822408329739,20.5763574962848,NaN,1,,,,
729,1,0,023.jpg,20.5881437913508,21.1057931976741,21.2587315756125,NaN,1,,,,
730,1,0,019.jpg,21.2705193800391,21.7881358823013,22.9763926945739,NaN,1,,,,
731,1,0,016.jpg,22.9999812839285,23.5175814850961,25.023203098657,NaN,1,,,,
732,1,0,049.jpg,25.0349697720353,25.5526360831973,27.2469956931905,NaN,1,,,,
733,1,0,053.jpg,27.2587457636021,27.77642716837,29.576406097696,NaN,1,,,,
734,1,0,028.jpg,29.5881751860513,30.1058248942466,31.7646695511555,NaN,1,,,,
735,1,0,029.jpg,31.7764223384161,32.2938495668589,34.0938408729417,NaN,1,,,,
736,1,0,017.jpg,34.1056048294708,34.6232832155176,35.5176165022622,NaN,1,,,,
737,1,0,030.jpg,35.5294441538088,36.0468134228042,37.5526855902249,NaN,1,,,,
738,1,0,046.jpg,37.5644525654752,38.0821040849034,38.3762174879953,NaN,1,,,,
739,1,0,060.jpg,38.3880182729231,38.9056377939064,38.9997560873269,NaN,1,,,,
740,1,0,026.jpg,39.0115209494722,39.5291694501791,42.0232999996076,NaN,1,,,,
741,1,0,022.jpg,42.035064559881,42.5527335878921,46.3059956934924,NaN,1,42.6704440931323,42.906105695693,,
742,1,0,021.jpg,46.6707556251606,47.1882993762417,48.6939273291171,NaN,1,,,,
743,1,0,025.jpg,48.7056906819021,49.2233418994579,51.7174727507584,NaN,1,,,,
744,1,0,016.jpg,51.7292354997992,52.2469060371707,52.646891124688,NaN,1,,,,
745,1,0,018.jpg,52.658652062496,53.1763222979955,53.6704229620839,NaN,1,,,,
746,1,0,059.jpg,53.6821863148689,54.1998438717394,54.9998433283695,NaN,1,,,,
747,1,0,023.jpg,55.0116069830267,55.5292630305364,57.9292707584627,NaN,1,,,,
748,1,0,048.jpg,57.9410347149919,58.4586883475249,59.4586883475249,NaN,1,,,,
749,1,0,047.jpg,59.4704547190311,59.9881415574971,60.6822273694772,NaN,1,,,,
750,1,0,024.jpg,60.6939919297508,61.2116500903655,61.5057607766082,NaN,1,,,,
751,1,0,051.jpg,61.5175250350096,62.0354147315406,63.0469773393656,NaN,1,,,,
752,1,0,052.jpg,63.0587334472195,63.5763931171948,64.5175645802574,NaN,1,,,,
753,1,0,052.jpg,64.529304387017,65.0472209501665,65.341337673852,NaN,0,,,,
754,1,0,058.jpg,65.3531152146265,65.8707549610419,66.9648711413574,NaN,1,,,,
755,1,0,019.jpg,66.9766184949199,67.4943017109206,67.6942880663007,NaN,1,,,,
756,1,0,057.jpg,67.7060317973978,68.2234514790375,69.7178199036969,NaN,1,,,,
757,1,0,054.jpg,69.7413804189441,68.2234514790375,70.2590171466384,NaN,1,,,,
758,1,0,020.jpg,70.2708097810189,70.7884105859307,72.2472583219351,NaN,1,,,,
759,1,0,050.jpg,-2.15316297079585,-1.63549877273886,0.364501831005555,NaN,1,,,74.4238779639691,
760,1,0,055.jpg,0.376260353836415,0.893895572170095,1.55273811597385,NaN,1,,,,
761,1,0,027.jpg,1.56447882834982,2.0821388001973,3.19983300434319,NaN,1,,,,
762,1,0,056.jpg,3.22336152114576,3.81157836554962,5.23486164144174,NaN,1,,,,
763,1,0,025.jpg,5.24661563619111,5.82336798120923,5.85862483363076,NaN,1,,,,
764,1,0,018.jpg,5.87040690248728,6.38806053502003,7.5880653045997,NaN,1,,,,
765,1,0,046.jpg,7.59986669327168,8.11749677977923,9.75254395182606,NaN,1,,,,
766,1,0,051.jpg,9.76431998324006,10.2819980674149,10.7763018914402,NaN,1,,,,
767,1,0,017.jpg,10.7881029782402,11.3057206879907,13.4113747226174,NaN,1,,,,
768,1,0,047.jpg,13.4231404903792,13.9408234045079,16.4349147105606,NaN,1,,,,
769,1,0,056.jpg,16.446681685811,16.9643772785687,19.1645873211899,NaN,1,,,,
770,1,0,021.jpg,19.1763512777191,19.6937772986732,20.9998997784562,NaN,1,,,,
771,1,0,021.jpg,21.0116534713334,21.5293080094825,22.2705027770726,NaN,0,,,,
772,1,0,020.jpg,22.2822449988091,22.7999279129378,24.8117145098761,NaN,1,,,,
773,1,0,049.jpg,24.8234826926148,25.3411127791223,25.9411141073597,NaN,1,,,,
774,1,0,022.jpg,25.952858140329,26.4705138859667,28.8705605553964,NaN,1,26.6236140673616,,,
775,1,0,029.jpg,28.8823320587287,29.3999404104436,30.9999607566244,NaN,1,,,,
776,1,0,016.jpg,31.0117047895938,31.5293635539526,33.0823307908659,NaN,1,,,,
777,1,0,057.jpg,33.0940977661162,33.6117426443577,34.0117461460743,NaN,1,,,,
778,1,0,030.jpg,34.023489273427,34.5409116719159,34.7409031591221,NaN,1,,,,
779,1,0,058.jpg,34.7527063590269,35.2703295024755,35.8703220764214,NaN,1,,,,
780,1,0,023.jpg,35.8820854292064,36.3997469104145,38.6000058563193,NaN,1,,,,
781,1,0,053.jpg,38.6235902194642,39.1411837794451,41.4470590259614,NaN,1,,,,
782,1,0,027.jpg,41.4588169450483,42.1058940229623,43.8939399473718,NaN,1,,,,
783,1,0,024.jpg,43.9056842822131,44.4233300660708,46.3412259811676,NaN,1,,,,
784,1,0,048.jpg,46.3530077481519,46.8706414571247,47.3765269069188,NaN,1,,,,
785,1,0,054.jpg,47.3882700342717,47.9059164218736,49.3059359228125,NaN,1,,,,
786,1,0,059.jpg,49.3177134635873,49.8353556249795,51.9410398468181,NaN,1,,,,
787,1,0,060.jpg,51.9645393838973,52.4821821490339,53.5645407121347,NaN,1,,,,
788,1,0,026.jpg,53.5763206678862,54.0940111288178,56.5881036423589,NaN,1,,,,
789,1,0,028.jpg,56.5998558258755,57.1175067415593,57.3175060774406,NaN,1,57.2234777419121,,,
790,1,0,050.jpg,57.3292697320976,57.8469230627584,58.6469225193887,NaN,1,57.3763898569762,,,
791,1,0,019.jpg,-5.08927958520349,-4.5715906336327,0.310904737913006,NaN,1,,,60.1293866169826,0.305724914200482
792,1,0,052.jpg,1.91090455678977,2.42841329070484,2.53429735188706,NaN,1,,,,
793,1,0,055.jpg,2.54609904243148,3.06399205955563,4.86371771817267,NaN,1,,,,
794,1,0,057.jpg,4.87548439155103,5.39315613641111,6.79314152580059,NaN,1,,,,
795,1,0,055.jpg,6.80490397296921,7.32257300098013,8.61668006475747,NaN,1,,,,
796,1,0,019.jpg,8.62844341754248,9.14609825756384,11.2402446250915,NaN,1,,,,
797,1,0,053.jpg,11.252012204086,11.7696573841995,13.9696515882549,NaN,1,,,,
798,1,0,060.jpg,13.9814155447841,14.4990839690508,16.4990806484575,NaN,1,,,,
799,1,0,016.jpg,16.5108443031145,17.0284973319033,17.8284976941497,NaN,1,,,,
800,1,0,028.jpg,17.8402616506789,18.3579469797844,19.4520375009697,NaN,1,,,,
801,1,0,050.jpg,19.4638029668595,19.9814562975203,21.8755785756525,NaN,1,,,,
802,1,0,022.jpg,21.8873398153328,22.4049985796917,22.6049945949796,NaN,1,,,,
803,1,0,017.jpg,22.6167576458924,23.1344136934024,23.3344094068182,NaN,1,,,,
804,1,0,047.jpg,23.346174570836,23.8638481269288,24.5579758991337,NaN,1,,,,
805,1,0,047.jpg,24.5697111778113,25.0873611878787,26.3814848546228,NaN,0,,,,
806,1,0,059.jpg,26.3932714515611,26.9109202541401,29.4050329931133,NaN,1,,,,
807,1,0,023.jpg,29.4168262312382,29.9344620533161,31.7344560762481,NaN,1,,,,
808,1,0,051.jpg,31.7462257683476,32.2638775896478,33.0638776500221,NaN,1,,,,
809,1,0,054.jpg,33.0756591151344,33.5932958428284,34.2874097289157,NaN,1,,,,
810,1,0,049.jpg,34.2991815341202,34.8168318460596,37.0168399362326,NaN,1,,,,
811,1,0,021.jpg,37.0286072133551,37.5462557140618,39.840399606238,NaN,1,,,,
812,1,0,018.jpg,39.8639166519001,40.3815678694559,41.9815743295194,NaN,1,41.0993011358541,,,
813,1,0,018.jpg,41.9933379841764,42.5109925223258,43.1109911337139,NaN,0,,,,
814,1,0,056.jpg,43.1345247823426,43.6521747924101,43.8521705058261,0.564786134168344,0,,,,
815,1,0,026.jpg,43.8639356698436,44.3815917173536,46.4757172557047,NaN,1,,,,
816,1,0,020.jpg,46.4874815141061,47.0051484290123,48.4992566399037,NaN,1,,,,
817,1,0,046.jpg,48.5228047783942,49.0404553922058,51.4404492340145,NaN,1,,,,
818,1,0,048.jpg,51.4639783545615,51.9816341001992,52.0757487711539,NaN,1,,,,
819,1,0,025.jpg,52.0875287269057,52.6051799444615,54.0992896647135,NaN,1,,,,
820,1,0,030.jpg,54.122824822703,54.6404736252819,55.3345908319625,NaN,1,,,,
821,1,0,029.jpg,55.3463587128292,55.8640238165028,57.9698991233936,NaN,1,,,,
822,1,0,052.jpg,57.9816682117487,58.4993188255605,58.8993153842182,NaN,1,,,,
823,1,0,058.jpg,-1.5061073258023,-0.988437995919185,0.105663392662336,NaN,1,,,60.4170894637271,
824,1,0,024.jpg,0.117430367912675,0.635097282818833,1.63508339670148,NaN,1,,,,
825,1,0,027.jpg,1.65861674345797,2.17626796101399,4.27038957502759,NaN,1,,,,
826,1,0,053.jpg,4.28215685215014,4.79982678577744,6.49395033177257,NaN,1,,,,
827,1,0,024.jpg,6.50569949656801,7.02335675156633,7.51747069802809,NaN,1,,,,
828,1,0,054.jpg,7.52926001181527,8.04695077461906,8.84688864933673,NaN,1,,,,
