Trial,nBack,Valence,Image,imagePresentationTime,NoisePresentationTime,x,RT,Accuracy,experiment,Clock_1,Clock_2,dataOneMinPress
1,1,1,4608.jpg,0.0145427113457117,0.555663491773885,1.03803171835898,NaN,1,0,,,
2,1,1,4608.jpg,1.04977999527182,1.56720589158067,3.36721470626071,0.635130541762919,1,0,,,
3,1,1,4653.jpg,3.37898622736975,3.89662222699553,6.19075146951946,NaN,1,0,,,
4,1,1,5622.jpg,6.202519066268,6.7201725745108,8.32018144956965,0.682436389412032,0,0,,,
5,1,1,5270.jpg,8.33194693322002,8.84960346018488,11.143734815807,NaN,1,0,,,
6,1,1,5628.jpg,11.1554990919685,11.6731547133095,12.2731542303227,NaN,1,0,,,
7,1,1,5628.jpg,12.2849160914921,12.8025979757658,14.8025865046075,0.717735859085224,1,0,,,
8,1,1,5628.jpg,14.8143507807545,15.3320100245764,16.332009420832,0.941283670879784,1,0,,,
9,1,1,7230.jpg,16.343784866287,16.86144350635,18.0614358991734,NaN,1,0,,,
10,1,1,7350.jpg,18.0732016846887,18.5908567022998,19.0849940350017,NaN,1,0,,,
11,1,1,7351.jpg,19.0967450287571,19.6143915939319,21.7085215005645,NaN,1,0,,,
12,1,1,4651.jpg,21.7202869842149,22.2379429074354,23.8379514806293,NaN,1,0,,,
13,1,1,4640.jpg,23.8497169642651,24.3673734912445,26.2615049676097,0.623618932964746,0,0,,,
14,1,1,1720.jpg,26.2732659231697,26.7909215445252,28.8850490361801,NaN,1,0,,,
15,1,1,7402.jpg,28.8968293115904,29.4144722542842,29.7085870069131,NaN,1,0,,,
16,1,1,7402.jpg,29.7203530943079,30.2380304504914,32.6380230848008,0.717751556454459,1,0,,,
17,1,1,7330.jpg,32.6497873609624,33.1674547553412,34.4615664892481,NaN,1,0,,,
18,1,1,7340.jpg,34.4733301616507,34.9909857830062,36.990997556044,NaN,1,0,,,
19,1,1,7430.jpg,37.0027639453037,37.5204174535465,39.4145471186785,NaN,1,0,,,
20,1,1,7430.jpg,39.42631139484,39.9439682236844,42.0380969228281,0.800085792187019,1,0,,,
21,1,1,4611.jpg,42.049862708358,42.5675201409322,43.061633927573,NaN,1,0,,,
22,1,1,2240.jpg,43.0733997131028,43.5910568438121,44.7910607077793,NaN,1,0,,,
23,1,1,4534.jpg,44.8028246820613,45.3204800015374,46.9204897822201,NaN,1,0,,,
24,1,1,7460.jpg,46.9322546621115,47.4499271883396,49.8499258600932,NaN,1,0,,,
25,1,1,4656.jpg,49.8616895325104,50.379347266964,52.579359281488,NaN,1,0,,,
26,1,1,4531.jpg,52.5911226520402,53.1087788771256,55.4029108364921,NaN,1,0,,,
27,1,1,7450.jpg,55.4264487468608,55.9440944064263,57.4382800387393,NaN,1,0,,,
28,1,1,7450.jpg,57.4500422017882,57.9676440898184,59.4617675363843,0.835341188460006,1,0,,,
29,1,1,4653.jpg,59.4852978999261,60.0029655961844,62.2029664414295,NaN,1,0,,,
30,1,1,4534.jpg,62.2147316232004,62.7323908670223,62.9323838635755,NaN,1,0,,,
31,1,1,4534.jpg,62.9441852700693,63.4618037610926,65.7559375316923,0.870650921788183,1,0,,,
32,1,1,4608.jpg,65.7794838944974,66.2971340821387,67.3913053453143,NaN,1,0,,,
33,1,1,4608.jpg,67.4030572446936,67.9206642645586,68.1206726566161,NaN,0,0,,,
34,1,1,5270.jpg,68.1441909452697,68.6618516984599,70.5559741186444,0.105967235955177,0,0,,,
35,1,1,4531.jpg,70.5677383948059,71.0853928086726,71.5795150477497,NaN,1,0,,,
36,1,1,5622.jpg,71.603080428511,72.1206986176694,72.6148145174084,NaN,1,0,,,
37,1,1,4611.jpg,72.6265787935699,73.1442392448807,74.7442604967073,NaN,1,0,,,
38,1,1,4651.jpg,74.7560093773645,75.2736631874868,76.073667172197,NaN,1,0,,,
39,1,1,4640.jpg,76.0854287315015,76.6030934090377,77.497206773056,NaN,1,0,,,
40,1,1,7430.jpg,77.5089713510824,78.0266290855361,79.1207496341231,NaN,1,0,,,
41,1,1,1720.jpg,79.1325151177734,79.6501740597305,80.7442946083174,NaN,1,0,,,
42,1,1,7450.jpg,80.7560567713663,81.2737274863466,82.3678350544069,NaN,1,0,,,
43,1,1,7460.jpg,82.3796213672613,82.8972763848724,84.4972641288477,NaN,1,0,,,
44,1,1,7460.jpg,84.5090284049948,85.0266846300947,85.6267342579522,0.753047101781704,1,0,,,
45,1,1,7402.jpg,85.6384985340992,86.1561061577231,86.7561068822106,NaN,1,0,,,
46,1,1,4656.jpg,86.7678696490038,87.2855234591261,87.6855230365036,NaN,1,0,,,
47,1,1,7351.jpg,87.7090546075342,88.2267229075369,89.1208317434648,NaN,1,0,,,
48,1,1,7340.jpg,89.1325939065136,89.6502573765611,91.6502649233735,NaN,1,0,,,
49,1,1,5628.jpg,91.673793475682,92.191463285053,92.8855652382917,NaN,1,0,,,
50,1,1,2240.jpg,92.897331325672,93.4149929844862,95.3091646099056,NaN,1,0,,,
51,1,1,7230.jpg,95.3326605599868,95.8503028989362,97.6503129211051,NaN,1,0,,,
52,1,1,7330.jpg,97.6738429827819,98.1915146033862,100.285624586439,NaN,1,0,,,
53,1,1,7350.jpg,100.309157968717,100.826868530872,102.920944402314,NaN,1,0,,,
54,1,1,4531.jpg,102.932708074732,103.46218623365,104.344486116272,NaN,1,0,,,
55,1,1,4531.jpg,104.356250090554,104.873907523142,105.779790597036,0.694207306776661,1,0,,,
56,1,1,1720.jpg,105.791555175063,106.309240078044,107.709218524353,NaN,1,0,,,
57,1,1,1720.jpg,107.720981593011,108.238639327479,109.132759634565,0.553032370400615,1,0,,,
58,1,1,5270.jpg,109.144523608848,109.662181947046,111.75634928589,NaN,1,0,,,
59,1,1,7402.jpg,111.768110543315,112.285725713751,114.379860752219,NaN,1,0,,,
60,1,1,5622.jpg,114.391663366187,114.909282460954,116.403408926257,NaN,1,0,,,
61,1,1,4611.jpg,116.415171089306,116.932841502407,117.732829186003,NaN,1,0,,,
62,1,1,7450.jpg,117.744594669653,118.262270818333,120.062259105689,NaN,1,0,,,
63,1,1,4534.jpg,120.074046927897,120.591691078094,121.285812049304,NaN,1,0,,,
64,1,1,7430.jpg,121.297563344939,121.815235569287,123.015227962096,NaN,1,0,,,
65,1,1,7330.jpg,123.026991332634,123.544668085058,124.638769917554,NaN,1,0,,,
66,1,1,7330.jpg,124.650534193715,125.168192531914,126.568198146735,NaN,0,0,,,
67,1,1,7351.jpg,126.579964536009,127.097616233019,129.591758093811,NaN,1,0,,,
68,1,1,7230.jpg,129.603539576696,130.12117195387,132.121184632517,NaN,1,0,,,
69,1,1,7340.jpg,132.132946795566,132.650603926275,135.144740051488,NaN,1,0,,,
70,1,1,4640.jpg,135.156509157605,135.674175948239,136.368284542667,NaN,1,0,,,
71,1,1,4651.jpg,136.380053346918,136.897711685117,138.297724846765,NaN,1,0,,,
72,1,1,7350.jpg,138.309469501211,138.827160139772,139.121242893918,NaN,1,0,,,
73,1,1,4608.jpg,139.133010490681,139.650688148729,141.650686941226,NaN,1,0,,,
74,1,1,4608.jpg,141.66248834772,142.18009476384,143.780104242629,0.564747441327199,1,0,,,
75,1,1,4653.jpg,143.791884518039,144.309542856237,146.509540380895,NaN,1,0,,,
76,1,1,4653.jpg,146.521303751433,147.038959674654,149.533093384889,0.753082420866122,1,0,,,
77,1,1,4653.jpg,149.544899017579,150.062514188015,152.462528859018,0.635352418132243,1,0,,,
78,1,1,2240.jpg,152.474301587601,152.991950567754,154.086132698358,NaN,1,0,,,
79,1,1,5628.jpg,154.097844448683,154.615493730715,154.815489142246,NaN,1,0,,,
80,1,1,4656.jpg,154.827259153986,155.344918397808,156.744927936976,NaN,1,0,,,
81,1,1,7460.jpg,156.756696741228,157.274339382057,157.874339804679,NaN,1,0,,,
82,1,1,4640.jpg,157.886104382706,158.403760004061,159.097877050925,NaN,1,0,,,
83,1,1,4534.jpg,159.109644345808,159.627301476517,160.521420576115,NaN,1,0,,,
84,1,1,5628.jpg,160.533185456021,161.050841982986,161.450841862243,NaN,1,0,,,
85,1,1,7330.jpg,161.462604327156,161.980262665369,163.874392028636,NaN,1,0,,,
86,1,1,4656.jpg,163.886154191685,164.403826114154,166.29793645945,NaN,1,0,,,
87,1,1,7351.jpg,166.309703452454,166.827360885043,168.321485539098,NaN,1,0,,,
88,1,1,7230.jpg,168.333250117124,168.85091117218,169.850911775924,NaN,1,0,,,
89,1,1,4608.jpg,169.86269114571,170.380331371562,172.474462787563,NaN,1,0,,,
90,1,1,4611.jpg,172.486231591814,173.003902306795,174.49800643351,NaN,1,0,,,
91,1,1,4651.jpg,174.509773426515,175.027429953479,177.42744613385,NaN,1,0,,,
92,1,1,1720.jpg,177.439212824989,177.956878710014,180.251000103846,NaN,1,0,,,
93,1,1,7402.jpg,180.262766191241,180.780420906973,181.780423623815,NaN,1,0,,,
94,1,1,4653.jpg,181.792186692488,182.309858313092,183.803970590365,NaN,1,0,,,
95,1,1,4653.jpg,183.815733960902,184.333390186002,185.333394412213,0.623641271537053,1,0,,,
96,1,1,2240.jpg,185.345175895112,185.862815517219,187.462825901632,NaN,1,0,,,
97,1,1,7460.jpg,187.47461312011,187.992287759422,190.086375102037,NaN,1,0,,,
98,1,1,4531.jpg,190.098196432111,190.615795603284,192.521688337089,NaN,1,0,,,
99,1,1,5622.jpg,192.533458952574,193.051129969419,193.545227153081,NaN,1,0,,,
100,1,1,7350.jpg,193.556995353574,194.074665162931,196.168788428375,NaN,1,0,,,
101,1,1,7340.jpg,196.180562364461,196.698196250989,196.898194077497,NaN,1,0,,,
102,1,1,7450.jpg,196.909965900471,197.427633898595,198.521739051677,NaN,1,0,,,
103,1,1,5270.jpg,198.533509667162,199.051172533451,200.94528951995,NaN,1,0,,,
104,1,1,5270.jpg,200.957055003601,201.474711530565,203.474723001724,0.611906578880735,1,0,,,
105,1,1,7430.jpg,203.486490900352,204.004160709708,205.004147427317,NaN,1,0,,,
106,1,1,4651.jpg,205.015911703478,205.533572456668,207.427696688101,NaN,1,0,,,
107,1,1,4651.jpg,207.439461266127,207.95712020807,210.251250658082,0.553031464776723,1,0,,,
108,1,1,7450.jpg,210.2630143305,210.780671461209,211.474789715561,NaN,1,0,,,
109,1,1,4608.jpg,211.486553689843,212.004219272989,212.498325512817,NaN,1,0,,,
110,1,1,7351.jpg,212.510091902092,213.02774993841,213.721922831712,NaN,1,0,,,
111,1,1,7402.jpg,213.733684089137,214.251288995903,215.251292014626,NaN,1,0,,,
112,1,1,4656.jpg,215.263056894531,215.780713119617,216.580714991229,NaN,1,0,,,
113,1,1,1720.jpg,216.592480776759,217.110177452778,219.51017280393,NaN,1,0,,,
114,1,1,7330.jpg,219.521923193955,220.039612021283,220.333701718497,NaN,1,0,,,
115,1,1,7430.jpg,220.34545905159,220.863117993533,222.463140150983,NaN,1,0,,,
116,1,1,5628.jpg,222.474886314783,222.99257997208,223.486656326524,NaN,1,0,,,
117,1,1,4611.jpg,223.498417885829,224.016080148373,226.216090049798,NaN,1,0,,,
118,1,1,2240.jpg,226.227855533449,226.745528663407,227.345514898014,NaN,1,0,,,
119,1,1,7460.jpg,227.357276759198,227.874933889907,229.27495731521,NaN,1,0,,,
120,1,1,7460.jpg,229.28670378089,229.804360911599,232.298493112467,0.729501644600532,1,0,,,
121,1,1,7460.jpg,232.31026040735,232.827915726841,233.827920556796,0.611849223103491,1,0,,,
122,1,1,4534.jpg,233.839708982763,234.357377584631,234.651456112551,NaN,1,0,,,
123,1,1,5622.jpg,234.663219483089,235.180880840024,235.87499517003,NaN,1,0,,,
124,1,1,7230.jpg,235.886764276162,236.404425934961,237.498574859565,NaN,1,0,,,
125,1,1,4531.jpg,237.510316495289,238.027954306148,239.027960645471,NaN,1,0,,,
126,1,1,7350.jpg,239.03972763849,239.557385372944,240.25150453292,NaN,1,0,,,
127,1,1,5270.jpg,240.263267299713,240.780929260392,243.180939101439,NaN,1,0,,,
128,1,1,5270.jpg,243.192704886955,243.71036050831,245.510415811354,0.588337877517915,1,0,,,
129,1,1,7340.jpg,245.52218069126,246.039794050448,248.53392594945,NaN,1,0,,,
130,1,1,4640.jpg,248.545695055567,249.063347960066,250.263351220288,NaN,1,0,,,
131,1,1,4653.jpg,250.275132703187,250.792789833897,253.192789109395,NaN,1,0,,,
132,1,1,4653.jpg,253.204551876202,253.722213535002,253.922207437179,0.517741353149177,1,0,,,
133,1,1,5270.jpg,253.933970203972,254.451627032802,256.051635605996,NaN,1,0,,,
134,1,1,7460.jpg,256.063399882143,256.581075125214,258.675187523244,NaN,1,0,,,
135,1,1,4608.jpg,258.68695210127,259.204612552581,259.898724769489,NaN,1,0,,,
136,1,1,4608.jpg,259.910491460629,260.428153421308,262.828162658596,0.847153462353162,1,0,,,
137,1,1,7351.jpg,262.839927236637,263.35758527297,265.357605800295,NaN,1,0,,,
138,1,1,4640.jpg,265.369384566337,265.887022075331,267.981147755752,NaN,1,0,,,
139,1,1,4653.jpg,267.992912937538,268.510573086969,270.004694722302,NaN,1,0,,,
140,1,1,7350.jpg,270.016458394719,270.534115827293,272.628246035805,NaN,1,0,,,
141,1,1,7350.jpg,272.640010613832,273.157671970766,274.051788353507,0.658911157705006,1,0,,,
142,1,1,7340.jpg,274.063551724059,274.581209156633,275.275327712865,NaN,1,0,,,
143,1,1,7402.jpg,275.287103158305,275.804751836593,276.698865502476,NaN,1,0,,,
144,1,1,4651.jpg,276.722400696002,277.240070807224,278.840065192402,NaN,1,0,,,
145,1,1,4531.jpg,278.851826751707,279.36948448616,281.463616807785,NaN,1,0,,,
146,1,1,4656.jpg,281.487151699417,282.004815169465,282.804804362415,NaN,1,0,,,
147,1,1,7430.jpg,282.828332914738,283.345991554816,284.440111197779,NaN,1,0,,,
148,1,1,2240.jpg,284.463645183801,284.981299899533,287.181310102824,NaN,1,0,,,
149,1,1,7450.jpg,287.19309430258,287.710732415318,289.310741592242,NaN,1,0,,,
150,1,1,5622.jpg,289.322507679637,289.840172357159,292.334293690627,NaN,1,0,,,
151,1,1,1720.jpg,292.346087852158,292.863715399362,293.46371521824,NaN,1,0,,,
152,1,1,5628.jpg,293.475509077907,293.993153831849,296.087268946721,NaN,1,0,,,
153,1,1,4534.jpg,296.099031109785,296.616689146103,298.416728751792,NaN,1,0,,,
154,1,1,4611.jpg,298.428460123832,298.946138385625,299.640237320142,NaN,1,0,,,
155,1,1,7230.jpg,299.652006728138,300.169670198171,301.463782837702,NaN,1,0,,,
156,1,1,7330.jpg,301.475551943819,301.993221149431,303.087326604393,NaN,1,0,,,
157,1,1,7402.jpg,303.099088163697,303.616751331865,305.216755980699,NaN,1,0,,,
158,1,1,4531.jpg,305.22852025686,305.746187953104,307.840307294202,NaN,1,0,,,
159,1,1,7330.jpg,307.852071872243,308.369728399208,308.769725863473,NaN,1,0,,,
160,1,1,7450.jpg,308.781490743379,309.299143949742,311.393277780735,NaN,1,0,,,
161,1,1,7230.jpg,311.405042358761,311.922711564373,314.122737465048,NaN,1,0,,,
162,1,1,7460.jpg,314.134469742712,314.652148910114,315.652131401512,NaN,1,0,,,
163,1,1,7460.jpg,315.663890243959,316.181557638338,317.381563011673,0.611870052307495,1,0,,,
164,1,1,7351.jpg,317.393331212181,317.910984418544,319.405148014164,NaN,1,0,,,
165,1,1,4611.jpg,319.416916818402,319.93453500756,321.734541407262,NaN,1,0,,,
166,1,1,7430.jpg,321.746306287154,322.263965530976,324.158089762408,NaN,1,0,,,
167,1,1,4653.jpg,324.16987335842,324.687511471158,326.687523244182,NaN,1,0,,,
168,1,1,2240.jpg,326.699285105366,327.216952801624,328.311079387655,NaN,1,0,,,
169,1,1,5270.jpg,328.322853323742,328.840487813999,330.040494092958,NaN,1,0,,,
170,1,1,5622.jpg,330.052291876971,330.569929385965,332.969947075704,NaN,1,0,,,
171,1,1,7340.jpg,332.981698371339,333.499346445868,334.993475929892,NaN,1,0,,,
172,1,1,4608.jpg,335.00524473413,335.522898846117,337.722910860655,NaN,1,0,,,
173,1,1,4651.jpg,337.734679061148,338.252331663782,339.052334139124,NaN,1,0,,,
174,1,1,1720.jpg,339.064097207796,339.581772450867,341.181768949144,NaN,1,0,,,
175,1,1,5628.jpg,341.19352809347,341.711184620435,343.311193193615,NaN,1,0,,,
176,1,1,4656.jpg,343.322961695987,343.840628486621,346.334747706976,NaN,1,0,,,
177,1,1,4656.jpg,346.346515907469,346.864168510103,347.264181067992,0.67069173498021,1,0,,,
178,1,1,7350.jpg,347.275937495477,347.793588588727,349.193603561609,NaN,1,0,,,
179,1,1,4534.jpg,349.205365120913,349.723016817923,351.12302213088,NaN,1,0,,,
180,1,1,4640.jpg,351.134792746365,351.652458027631,352.052441907639,NaN,1,0,,,
181,1,1,7450.jpg,352.064205881921,352.581864823878,354.875995273876,NaN,1,0,,,
182,1,1,7402.jpg,354.887758946294,355.405416982627,357.699583355468,NaN,1,0,,,
183,1,1,7350.jpg,357.71131261441,358.228981216278,359.428975118455,NaN,1,0,,,
184,1,1,4640.jpg,359.440739696482,359.958399544048,361.958432448155,NaN,1,0,,,
185,1,1,5622.jpg,361.970172272646,362.487832120212,362.981945001229,NaN,1,0,,,
186,1,1,5622.jpg,362.993710786744,363.511381501725,365.111375886903,0.541267490509199,1,0,,,
187,1,1,4608.jpg,365.123139559306,365.640860385145,366.440798561642,NaN,1,0,,,
188,1,1,7460.jpg,366.452563139668,366.9702232891,368.170225643713,NaN,1,0,,,
189,1,1,7430.jpg,368.181988712386,368.699650371185,370.899658159498,NaN,1,0,,,
190,1,1,7330.jpg,370.911426963736,371.429095565618,372.029077875879,NaN,1,0,,,
191,1,1,4653.jpg,372.040844567018,372.558501999607,373.452621702949,NaN,1,0,,,
192,1,1,4611.jpg,373.464427335653,373.982042506075,375.276166918629,NaN,1,0,,,
193,1,1,4656.jpg,375.287931496656,375.805601004147,376.805590438613,NaN,1,0,,,
194,1,1,4534.jpg,376.817354111015,377.33501546795,379.429169524388,NaN,1,0,,,
195,1,1,4531.jpg,379.440910556368,379.958569800176,382.452716792803,NaN,1,0,,,
196,1,1,7351.jpg,382.476222402809,382.993881948496,383.487998150129,NaN,1,0,,,
197,1,1,7351.jpg,383.499762728155,384.017420462609,384.711539622585,0.682443634344963,1,0,,,
198,1,1,2240.jpg,384.723306917469,385.240974915592,387.040968636647,NaN,1,0,,,
199,1,1,5270.jpg,387.052751327035,387.570391251007,388.664512403338,NaN,1,0,,,
200,1,1,4651.jpg,388.676306564885,389.193934715833,391.688082312205,NaN,1,0,,,
201,1,1,4651.jpg,391.699831796592,392.21750432282,394.711619920694,0.588327311983448,1,0,,,
202,1,1,5628.jpg,394.723386913698,395.241057628678,396.935169845587,NaN,1,0,,,
203,1,1,7230.jpg,396.94693804608,397.464606647962,399.664603568861,NaN,1,0,,,
204,1,1,7340.jpg,399.676373580587,400.194024371987,401.288160617944,NaN,1,0,,,
205,1,1,1720.jpg,401.311685245921,401.829333018584,403.523487195765,NaN,1,0,,,
206,1,1,7450.jpg,403.53522400152,404.052883849086,406.547015144344,NaN,1,0,,,
207,1,1,7340.jpg,406.558783948582,407.076437758704,408.570561507135,NaN,1,0,,,
208,1,1,5628.jpg,408.582324877672,409.099994687043,411.499997283143,NaN,1,0,,,
209,1,1,5628.jpg,411.511760351816,412.029421406871,413.923546242047,0.811861539492384,1,0,,,
210,1,1,4534.jpg,413.935312329442,414.45297096952,415.747092665217,NaN,1,0,,,
211,1,1,1720.jpg,415.758856941378,416.276529769471,417.970639571387,NaN,1,0,,,
212,1,1,7330.jpg,417.982408677504,418.500074864394,420.794193843249,NaN,1,0,,,
213,1,1,4531.jpg,420.805957515666,421.323613137007,421.92361235214,NaN,1,0,,,
214,1,1,4651.jpg,421.935377835791,422.453047947027,423.547154609478,NaN,1,0,,,
215,1,1,5622.jpg,423.558924319339,424.076590506229,426.570712141562,NaN,1,0,,,
216,1,1,2240.jpg,426.582475813964,427.100130529696,428.194254398884,NaN,1,0,,,
217,1,1,4656.jpg,428.206018373166,428.72367550389,430.417852019644,NaN,1,0,,,
218,1,1,7351.jpg,430.429603013414,430.947240220528,433.241368255563,NaN,1,0,,,
219,1,1,7230.jpg,433.253127098011,433.770779700644,436.264913109,NaN,1,0,,,
220,1,1,4653.jpg,436.276676781403,436.794330591525,438.488457600179,NaN,1,0,,,
221,1,1,5270.jpg,438.500222480085,439.017890780087,439.417876773194,NaN,1,0,,,
222,1,1,5270.jpg,439.429635313776,439.94729757632,440.147296308453,0.576565450799535,1,0,,,
223,1,1,4608.jpg,440.159063301471,440.676714998481,442.276723873525,NaN,1,0,,,
224,1,1,7460.jpg,442.300257255803,442.817922838949,444.312032399379,NaN,1,0,,,
225,1,1,7430.jpg,444.323803316729,444.84150331335,447.335590837072,NaN,1,0,,,
226,1,1,4611.jpg,447.359167085262,447.876804594256,449.770905279627,NaN,1,0,,,
227,1,1,4640.jpg,449.78267287639,450.300350836304,451.994453393287,NaN,1,0,,,
228,1,1,7350.jpg,452.006225518126,452.523873592669,453.92390426292,NaN,1,0,,,
229,1,1,7402.jpg,453.947409269182,454.465070324237,455.265068271503,NaN,1,0,,,
230,1,1,7402.jpg,455.276860621801,455.794488169005,458.288622181106,0.505914891255088,1,0,,,
231,1,1,7430.jpg,458.300386155403,458.818042078623,460.218050712181,NaN,1,0,,,
232,1,1,4534.jpg,460.229829478223,460.747470911563,460.94746994556,NaN,1,0,,,
233,1,1,4611.jpg,460.959232108609,461.476904031078,463.276900167111,NaN,1,0,,,
234,1,1,5270.jpg,463.288662933905,463.806333950764,465.206326886939,NaN,1,0,,,
235,1,1,7340.jpg,465.218095087446,465.735763991193,466.029860027717,NaN,1,0,,,
236,1,1,4640.jpg,466.041628228224,466.559284151444,468.85341641269,NaN,1,0,,,
237,1,1,4656.jpg,468.865180085108,469.382837215817,470.276958126648,NaN,1,0,,,
238,1,1,7351.jpg,470.288720591576,470.806378929774,471.500497787871,NaN,1,0,,,
239,1,1,7450.jpg,471.524033585127,472.04168135779,472.44169361383,NaN,1,0,,,
240,1,1,4531.jpg,472.453444003841,472.971102040174,473.865221441651,NaN,1,0,,,
241,1,1,7330.jpg,473.876991453377,474.394657942146,475.088762310363,NaN,1,0,,,
242,1,1,5622.jpg,475.100525077156,475.618183415354,477.3123074053,NaN,1,0,,,
243,1,1,5622.jpg,477.32407379456,477.841729415915,478.135846885401,0.635382303502411,1,0,,,
244,1,1,2240.jpg,478.147610255939,478.665266481039,479.465268050772,NaN,1,0,,,
245,1,1,1720.jpg,479.477041081234,479.994692778244,480.794707328503,NaN,1,0,,,
246,1,1,1720.jpg,480.806470699041,481.324130546607,483.618244695492,0.51774256065255,1,0,,,
247,1,1,1720.jpg,483.630008669774,484.147665196753,485.347689588045,0.600103361168294,1,0,,,
248,1,1,7460.jpg,485.359435148115,485.87709167508,487.877102542494,NaN,1,0,,,
249,1,1,4608.jpg,487.88886712052,488.406536024268,490.006543389958,NaN,1,0,,,
250,1,1,4608.jpg,490.018296798706,490.535968721175,492.535964494949,0.635385624103947,1,0,,,
251,1,1,7350.jpg,492.547729676735,493.065386505565,493.465384875453,NaN,1,0,,,
252,1,1,4653.jpg,493.477153679705,493.994819564716,496.488938483191,NaN,1,0,,,
253,1,1,4651.jpg,496.500728720392,497.018399737251,499.218373715834,NaN,1,0,,,
254,1,1,7402.jpg,499.230145538808,499.747808706976,500.041910479078,NaN,1,0,,,
255,1,1,7230.jpg,500.065447785702,500.583104614547,501.877218763431,NaN,1,0,,,
256,1,1,5628.jpg,501.888989680781,502.406652245205,503.30076379799,NaN,1,0,,,
257,1,1,7430.jpg,503.312522338572,503.83018097865,505.524310100416,NaN,1,0,,,
258,1,1,7430.jpg,505.536072867209,506.05374358219,506.747848252271,0.564792722216225,1,0,,,
259,1,1,4640.jpg,506.75961494341,507.277269357277,508.771395520685,NaN,1,0,,,
260,1,1,5622.jpg,508.783162513704,509.300815116323,510.900823689502,NaN,1,0,,,
261,1,1,7350.jpg,510.912585550686,511.430244794508,513.030250348966,NaN,1,0,,,
262,1,1,7350.jpg,513.042017643849,513.559674170814,514.759680147894,0.705973696021829,1,0,,,
263,1,1,1720.jpg,514.771443518432,515.289114233412,515.489096362551,NaN,1,0,,,
264,1,1,1720.jpg,515.500860940592,516.018518373166,517.418524591747,0.541266283005825,1,0,,,
265,1,1,4531.jpg,517.430288264164,517.947945998618,519.042067150949,NaN,1,0,,,
266,1,1,7402.jpg,519.0538326346,519.571490369053,519.971486625829,NaN,1,0,,,
267,1,1,4656.jpg,519.983251807615,520.500926748806,521.795030332156,NaN,1,0,,,
268,1,1,4656.jpg,521.806796117671,522.324452946516,523.524458319851,0.658915987660293,1,0,,,
269,1,1,5270.jpg,523.536225614735,524.053892103489,525.548004380777,NaN,1,0,,,
270,1,1,4653.jpg,525.559768958803,526.077425183903,528.171554788671,NaN,1,0,,,
271,1,1,7450.jpg,528.18332117793,528.700976195541,530.500997386989,NaN,1,0,,,
272,1,1,4534.jpg,530.512750191992,531.030428453785,533.230421752218,NaN,1,0,,,
273,1,1,2240.jpg,533.242186632109,533.759861573315,534.053959421086,NaN,1,0,,,
274,1,1,7351.jpg,534.065738187128,534.583388978514,535.277496969196,NaN,1,0,,,
275,1,1,4608.jpg,535.289260339734,535.806918074202,537.101038864275,NaN,1,0,,,
276,1,1,4611.jpg,537.124571642809,537.642225754797,540.136359766911,NaN,1,0,,,
277,1,1,4651.jpg,540.148125854292,540.665780268158,542.665794154294,NaN,1,0,,,
278,1,1,4651.jpg,542.677557826712,543.19522522109,544.395218821388,0.588323387637502,1,0,,,
279,1,1,7460.jpg,544.406989436873,544.924658038741,545.924643246981,NaN,1,0,,,
280,1,1,7340.jpg,545.936412353112,546.454068880077,546.748195707609,NaN,1,0,,,
281,1,1,7330.jpg,546.759949418236,547.277615906991,549.171730176633,NaN,1,0,,,
282,1,1,7230.jpg,549.183493849036,549.701149470391,551.101157500205,NaN,1,0,,,
283,1,1,5628.jpg,551.112918153885,551.630592189467,552.23057782033,NaN,1,0,,,
284,1,1,7450.jpg,552.242341492747,552.759999830945,553.960016373574,NaN,1,0,,,
285,1,1,7230.jpg,553.971770989796,554.489423894294,555.089424920661,NaN,1,0,,,
286,1,1,5270.jpg,555.10118738559,555.618846931276,557.618857194946,NaN,1,0,,,
287,1,1,7330.jpg,557.630644413424,558.148278299952,559.148282828042,NaN,1,0,,,
288,1,1,7340.jpg,559.16005072667,559.677703329289,562.077719207795,NaN,1,0,,,
289,1,1,7430.jpg,562.089487710167,562.607152085824,562.807136629941,NaN,1,0,,,
290,1,1,4534.jpg,562.818900906103,563.33661931695,565.430688547189,NaN,1,0,,,
291,1,1,5628.jpg,565.442455540207,565.960125047699,567.654237264593,NaN,1,0,,,
292,1,1,7351.jpg,567.666000635145,568.18365686023,569.58366398442,NaN,1,0,,,
293,1,1,4531.jpg,569.595427656837,570.113079655712,571.807210588726,NaN,1,0,,,
294,1,1,4608.jpg,571.818976072376,572.336725576097,574.230761056984,NaN,1,0,,,
295,1,1,5622.jpg,574.254288401818,574.771946136272,575.171944204281,NaN,1,0,,,
296,1,1,7460.jpg,575.183709989811,575.701380402912,577.995498778022,NaN,1,0,,,
297,1,1,2240.jpg,578.00726214856,578.524921694247,578.724914690814,NaN,1,0,,,
298,1,1,4651.jpg,578.736678966961,579.254337003294,580.14845761226,NaN,1,0,,,
299,1,1,1720.jpg,580.160224907144,580.677892301523,581.277877026776,NaN,1,0,,,
300,1,1,4656.jpg,581.289645227269,581.80730567858,584.207313104649,NaN,1,0,,,
301,1,1,7350.jpg,584.230850411273,584.74851569254,585.042615049679,NaN,1,0,,,
302,1,1,7350.jpg,585.054380533329,585.57203615467,587.066161714349,0.600104870522046,1,0,,,
303,1,1,7402.jpg,587.077928103608,587.595593686754,589.289758429484,NaN,1,0,,,
304,1,1,4653.jpg,589.301478330381,589.819141498549,591.513254621066,NaN,1,0,,,
305,1,1,4653.jpg,591.525021010326,592.042696253397,594.242690759318,0.553034181633848,1,0,,,
306,1,1,4611.jpg,594.254458356067,594.772148390897,595.066226918818,NaN,1,0,,,
307,1,1,4640.jpg,595.089757886119,595.607440374122,597.70154492346,NaN,1,0,,,
308,1,1,4608.jpg,597.713323085758,598.230969349068,599.630992170627,NaN,1,0,,,
309,1,1,4653.jpg,599.64273501384,600.160395465151,601.960403676087,NaN,1,0,,,
1,1,1,4640.jpg,0.0246011055860436,0.542239218324539,2.34198963007657,NaN,1,1,,,
2,1,1,7460.jpg,2.35375632121577,2.87140711260145,3.56552898943482,NaN,1,1,,,
3,1,1,7460.jpg,3.57730292550696,4.09496367869724,4.38906273395696,0.553020899242256,1,1,,,
4,1,1,7340.jpg,4.40082761386293,4.91847840524861,7.41265166077937,NaN,1,1,,,
5,1,1,4534.jpg,7.42437820286432,7.9420320129866,8.94203442796425,NaN,1,1,,,
6,1,1,5270.jpg,8.95379960973514,9.4714670041285,10.4714540236018,NaN,1,1,,,
7,1,1,7430.jpg,10.4832204128616,11.0008890147437,12.0008775435854,NaN,1,1,,,
8,1,1,7430.jpg,12.0126418197324,12.5302929129975,14.6244249327428,0.835382243138156,1,1,,,
9,1,1,4651.jpg,14.6361889070249,15.1538427171472,15.6479607299989,NaN,1,1,,,
10,1,1,7450.jpg,15.6597259117843,16.1773797218921,17.1773833443585,NaN,1,1,,,
11,1,1,4653.jpg,17.1891482242645,17.7068032418756,20.0009457667766,NaN,1,1,,,
12,1,1,4656.jpg,20.0126991755242,20.5303475519322,20.7303450765758,NaN,1,1,,,
13,1,1,4656.jpg,20.7421147864516,21.2597664834466,22.7538917412458,NaN,0,1,,,
14,1,1,7230.jpg,22.7656560174073,23.2833101293945,23.8833096464077,NaN,1,1,,,
15,1,1,5622.jpg,23.895075431923,24.4127286382864,24.7068735781795,NaN,1,1,,,
16,1,1,5628.jpg,24.7186100820691,25.2362641940563,25.7303800937952,NaN,1,1,,,
17,1,1,7330.jpg,25.7421464830695,26.2598015006661,27.4598270994611,NaN,1,1,,,
18,1,1,2240.jpg,27.4715702445392,27.9893191445153,29.589231420352,NaN,1,1,,,
19,1,1,2240.jpg,29.6009966021229,30.1186784863967,32.6127829149773,0.529489328197087,1,1,,,
20,1,1,7350.jpg,32.6245490023721,33.1422025106149,34.9422107215505,NaN,1,1,,,
21,1,1,7351.jpg,34.9539746958326,35.4716285059549,37.9657634236792,NaN,1,1,,,
22,1,1,4531.jpg,37.9775252848485,38.4951803024596,38.9892952965893,NaN,1,1,,,
23,1,1,4608.jpg,39.0010604783602,39.5187167034601,40.0128341125674,NaN,1,1,,,
24,1,1,4608.jpg,40.0245998980972,40.542253708205,42.0363774566358,NaN,0,1,40.0717267352884,,
25,1,1,4608.jpg,42.0481532039557,42.5658097309206,43.5658003728749,0.623602631851099,1,1,,,
26,1,1,7402.jpg,43.5775646490365,44.0952199685125,45.3893428716983,NaN,1,1,,,
27,1,1,1720.jpg,45.4011053366266,45.9187579392456,46.4128786689689,NaN,1,1,,,
28,1,1,4611.jpg,46.4246444544842,46.9422988683364,48.4364247298945,NaN,1,1,47.7188518820039,,
29,1,1,5622.jpg,48.4481905154098,48.9658440236526,49.9658458348858,NaN,1,1,,,
30,1,1,4608.jpg,49.9776098091679,50.4952769016818,50.7893816925207,NaN,1,1,,,
31,1,1,7450.jpg,50.8011453649378,51.3188003825344,52.6129423037055,NaN,1,1,,,
32,1,1,7450.jpg,52.6246881656261,53.1423422776134,54.8364701918908,0.600113021093421,1,1,54.7541924063407,,
33,1,1,7340.jpg,54.8482344680524,55.3659091073787,55.6600057476608,NaN,1,1,,,
34,1,1,7340.jpg,-0.76549481744587,-0.247840705458657,0.752162011398468,NaN,0,1,,,56.436564496893
35,1,1,4640.jpg,0.763931721259723,1.28158130515658,2.17570040475402,NaN,1,1,,,
36,1,1,4534.jpg,2.1874643790361,2.70512150975992,3.30512072489364,NaN,1,1,,,
37,1,1,5270.jpg,3.31688560478506,3.83454907483247,6.12867167615332,NaN,1,1,,,
38,1,1,4656.jpg,6.1404347448115,6.65809579986671,8.95225975773064,NaN,1,1,,,
39,1,1,7330.jpg,8.96402795823815,9.48164343053941,10.2816570751747,NaN,1,1,,,
40,1,1,7230.jpg,10.2934074652003,10.8110968962719,12.6110722031008,NaN,1,1,,,
41,1,1,7430.jpg,12.6228358755034,13.1405062886188,14.1404960249492,NaN,1,1,,,
42,1,1,7350.jpg,14.1522596973664,14.6699186393089,16.7640431122418,NaN,1,1,,,
43,1,1,7351.jpg,16.7758088977571,17.2934687453235,17.8934670548479,NaN,1,1,,,
44,1,1,5628.jpg,17.9052280104079,18.422896310396,19.6228893069492,NaN,1,1,,,
45,1,1,4651.jpg,19.6464483484015,20.1640921967191,20.8581917349802,NaN,1,1,,,
46,1,1,4653.jpg,20.8817293434695,21.3993910022691,22.5993827913335,NaN,1,1,,,
47,1,1,2240.jpg,22.6111730285338,23.1288005757378,23.6229191923339,NaN,1,1,,,
48,1,1,4611.jpg,23.6346840722399,24.1523442216858,24.5523359503713,NaN,1,1,,,
49,1,1,4531.jpg,24.5641026415105,25.081758564731,26.8817676812905,NaN,1,1,,,
50,1,1,1720.jpg,26.893532259317,27.4111990499514,29.8112001366972,NaN,1,1,,,
51,1,1,7460.jpg,29.8347368395771,30.3523849141056,31.8465065494383,NaN,1,1,,,
52,1,1,7460.jpg,31.8582635806524,32.3759327862645,33.1759494496364,0.658942854308407,1,1,,,
53,1,1,7402.jpg,33.1877049714822,33.7053554610029,35.3994797528139,NaN,1,1,,,
54,1,1,7330.jpg,35.411243727096,35.928902970918,37.4230243043712,NaN,1,1,,,
55,1,1,1720.jpg,37.4347879767884,37.9524505411973,40.046573202897,NaN,1,1,,,
56,1,1,7450.jpg,40.0583377809235,40.5759943079029,41.670116969588,NaN,1,1,41.2466800054099,,
57,1,1,7450.jpg,41.6818794345163,42.1995365652256,43.1995380745939,NaN,0,1,,,
58,1,1,7340.jpg,43.2113023507554,43.7289724619768,45.3289656396664,NaN,1,1,,,
59,1,1,7340.jpg,45.3407320289261,45.8584157244331,48.2584237542324,0.494175368643482,1,1,,,
60,1,1,4531.jpg,48.2701874266495,48.7878490854491,50.6819482614665,NaN,1,1,,,
61,1,1,7350.jpg,50.6937122357485,51.2113717814354,52.4113756454171,NaN,1,1,51.8232237213961,,
62,1,1,7430.jpg,52.4231393178197,52.9407928260625,53.5525566192227,NaN,1,1,,,
63,1,1,7430.jpg,53.564323008497,54.0819834598078,55.6819875048968,0.553030257287901,1,1,,,
64,1,1,7402.jpg,-0.259048328589415,0.258610311488155,1.55272838471865,NaN,1,1,,,55.9526533995813
65,1,1,7402.jpg,1.56449598148174,2.08215099907829,3.17627396265743,0.576585374394199,1,1,,,
66,1,1,5270.jpg,3.18803703131562,3.70569204892672,5.19981881607964,NaN,1,1,,,
67,1,1,5270.jpg,5.21158218663186,5.7292513922439,6.5292514526227,NaN,0,1,,,
68,1,1,7460.jpg,6.54100667260354,7.05868010442646,9.35278912149079,NaN,1,1,,,
69,1,1,4608.jpg,9.36456154820917,9.88223105568613,11.576338744504,NaN,1,1,,,
70,1,1,7351.jpg,11.5881030206656,12.1057583401416,13.1057616607432,NaN,1,1,,,
71,1,1,2240.jpg,13.1175268425141,13.6351848788472,14.1292989673675,NaN,1,1,,,
72,1,1,2240.jpg,14.1410647528828,14.6587209779827,14.9528773890197,0.541279565397417,1,1,,,
73,1,1,4653.jpg,14.964639853948,15.4822601562046,17.6822939055564,NaN,1,1,,,
74,1,1,4534.jpg,17.6940261832206,18.2117041431484,19.0116900155117,NaN,1,1,,,
75,1,1,4534.jpg,19.0235062137508,19.5411147429841,21.0470003525988,0.705929924515658,1,1,,,
76,1,1,4651.jpg,21.0587646287458,21.5764220613346,23.2705481643789,NaN,1,1,,,
77,1,1,4656.jpg,23.2823151573975,23.7999677600164,24.7999722881068,NaN,1,1,,,
78,1,1,4611.jpg,24.8117365642684,25.3294223728735,25.929391400743,NaN,1,1,,,
79,1,1,4640.jpg,25.9411608087394,26.4588411836303,27.7529345033108,NaN,1,1,,,
80,1,1,4640.jpg,27.7647008925851,28.2823688907083,29.6823624306417,0.529507440558518,1,1,,,
81,1,1,5628.jpg,29.6941430079169,30.2118022517388,31.9059102424217,NaN,1,1,30.7412813162664,,
82,1,1,5622.jpg,31.9176929328096,32.4353301399242,33.6353581537114,NaN,1,1,,,
83,1,1,7230.jpg,33.6471040156321,34.1647955598164,35.7647651914449,NaN,1,1,,,
84,1,1,4651.jpg,35.776529165727,36.2942001825722,37.2941920320154,NaN,1,1,,,
85,1,1,7330.jpg,37.3059569119214,37.8236101182993,38.8236125332769,NaN,1,1,,,
86,1,1,4611.jpg,38.8354015629884,39.353031827035,40.0471509870113,NaN,1,1,,,
87,1,1,7340.jpg,40.0589155650378,40.5765751107392,41.6706926405896,NaN,1,1,,,
88,1,1,4531.jpg,41.6824572186306,42.2001258204982,44.4001263638638,NaN,1,1,,,
89,1,1,4608.jpg,44.4118918475142,44.9295480726141,46.4237213281449,NaN,1,1,,,
90,1,1,4656.jpg,46.4354898305173,46.9530962466379,49.1531339203357,NaN,1,1,,,
91,1,1,4640.jpg,49.1649151013698,49.6825257437013,50.9766489487665,NaN,1,1,,,
92,1,1,2240.jpg,50.9884132249281,51.5060745818482,53.8002017112594,NaN,1,1,,,
93,1,1,7430.jpg,53.8119735342334,54.3296276462206,56.2237521795323,NaN,1,1,,,
94,1,1,7402.jpg,-1.43575910084473,-0.918074499728391,1.37604387536703,NaN,1,1,56.4473307823209,,57.6709063663729
95,1,1,7351.jpg,1.38779456727207,1.90550392193836,4.3995823894802,NaN,1,1,,,
96,1,1,5622.jpg,4.41134576001787,4.92899836265133,5.72900446047424,NaN,1,1,,,
97,1,1,4534.jpg,5.74076843475632,6.25845967707573,7.55254967615474,NaN,1,1,,,
98,1,1,7230.jpg,7.56431214108306,8.08196564932587,10.2819840031734,NaN,1,1,,,
99,1,1,7230.jpg,10.2937455624779,10.8114081269014,11.3055201023089,0.564794533449458,1,1,,,
100,1,1,5270.jpg,11.3172883028019,11.8349559990602,13.6349865485681,NaN,1,1,,,
101,1,1,5628.jpg,13.6467420704139,14.1643868243555,14.9644194869616,NaN,1,1,,,
102,1,1,7350.jpg,14.9761517646257,15.4937931979657,16.187925942213,NaN,1,1,,,
103,1,1,4653.jpg,16.1997059157438,16.7173621408438,17.1173565863865,NaN,1,1,,,
104,1,1,7460.jpg,17.1290991277201,17.6467514284595,19.0467633826192,NaN,1,1,,,
105,1,1,7450.jpg,19.0585391299392,19.5761724127224,20.8703022589762,NaN,1,1,,,
106,1,1,1720.jpg,20.8820653276489,21.3997315145389,22.2938436710683,NaN,1,1,,,
107,1,1,7430.jpg,22.305607041606,22.8232677947963,25.1173952260724,NaN,1,1,,,
108,1,1,2240.jpg,25.1291601059784,25.6468308209587,25.8468618534534,NaN,1,1,,,
109,1,1,2240.jpg,25.8586185828026,26.3762355644576,27.0703834023298,0.752991255358211,1,1,,,
110,1,1,4534.jpg,27.0821144725051,27.5997903193202,28.293891366935,NaN,1,1,,,
111,1,1,4531.jpg,28.3056556430965,28.8233290749195,29.1174290358031,NaN,1,1,,,
112,1,1,4611.jpg,29.1291933119646,29.6468652344338,31.7409782361938,NaN,1,1,,,
113,1,1,4656.jpg,31.7527431160997,32.2704071898916,34.7645339570445,NaN,1,1,,,
114,1,1,5270.jpg,34.7762973275821,35.2939556657948,37.5881024169212,NaN,1,1,,,
115,1,1,7460.jpg,37.5998500900896,38.1175147676113,38.717507039677,NaN,1,1,,,
116,1,1,7330.jpg,38.7292737308162,39.2469263334351,40.4469314048911,NaN,1,1,,,
117,1,1,7340.jpg,40.458703227865,40.9763673016569,42.0704821146646,NaN,1,1,,,
118,1,1,7350.jpg,42.0822382402548,42.5998944653547,43.3999195811484,NaN,1,1,,,
119,1,1,7230.jpg,43.4116932153556,43.9293129138678,45.7293280678714,NaN,1,1,,,
120,1,1,4651.jpg,45.7411001927248,46.2587467578996,46.7528644688718,NaN,1,1,,,
121,1,1,7450.jpg,46.7646296506573,47.2822795364191,48.6822890756011,NaN,1,1,47.4118154737516,,
122,1,1,4608.jpg,48.6940596910863,49.2117279910744,50.811721470629,NaN,1,1,,,
123,1,1,7351.jpg,50.8234854449111,51.341141670011,53.8352753802465,NaN,1,1,,,
124,1,1,1720.jpg,53.8470414676412,54.3647067489073,54.7646951570059,NaN,1,1,54.4471227921167,,
125,1,1,4640.jpg,54.7764693949575,55.2941425249155,55.494112579152,NaN,1,1,,,
126,1,1,4640.jpg,-1.23555600098916,-0.717907926460612,0.976262551848777,0.776564182931907,1,1,,,56.7412858443568
127,1,1,5628.jpg,0.988025620521512,1.50563897971006,2.99976363376481,NaN,1,1,,,
128,1,1,5622.jpg,3.01152881553571,3.52920194550825,5.22331144555938,NaN,1,1,,,
129,1,1,7402.jpg,5.23508024979674,5.75273164492683,6.95273732014175,NaN,1,1,,,
130,1,1,4653.jpg,6.96450220004772,7.48217110378027,8.57628199244209,NaN,1,1,,,
131,1,1,5628.jpg,8.58804807983688,9.10570309744799,11.3057244700321,NaN,1,1,,,
132,1,1,7230.jpg,11.317489651803,11.8351344057446,12.5292532638414,NaN,1,1,,,
133,1,1,7430.jpg,12.5410151250107,13.0586785950582,13.4586941716843,NaN,1,1,,,
134,1,1,4656.jpg,13.4704427504621,13.9880926362384,14.7880966209486,NaN,1,1,,,
135,1,1,4534.jpg,14.7998611989897,15.3175237633986,15.8116336256935,NaN,1,1,,,
136,1,1,1720.jpg,15.8233972981106,16.3410574475565,18.8351878371905,NaN,1,1,,,
137,1,1,4651.jpg,18.8469536227058,19.3646062253247,21.8587366149586,NaN,1,1,,,
138,1,1,4653.jpg,21.8705063248344,22.3881764360558,24.4822945696651,NaN,1,1,,,
139,1,1,7460.jpg,24.4940579402028,25.0117229196039,25.611712776692,NaN,1,1,,,
140,1,1,4531.jpg,25.6234782603424,26.1411314667057,27.9411511487997,NaN,1,1,,,
141,1,1,7340.jpg,27.9529090856377,28.4705644051137,30.8705805854843,NaN,1,1,,,
142,1,1,5270.jpg,30.8823457672552,31.4000122560246,33.0941274916549,NaN,1,1,,,
143,1,1,4608.jpg,33.1058929752908,33.6235485966463,35.9176784429146,NaN,1,1,,,
144,1,1,7450.jpg,35.929443926565,36.4471034722519,37.7412215454824,NaN,1,1,,,
145,1,1,4611.jpg,37.7529924628325,38.270648084188,40.3647749720985,NaN,1,1,,,
146,1,1,7402.jpg,40.3765398520045,40.8942147931957,41.8941990958265,NaN,1,1,,,
147,1,1,7350.jpg,41.9059784656129,42.4236386150442,43.3177399041742,NaN,1,1,,,
148,1,1,5622.jpg,43.3295059915545,43.8471610091656,44.6471662013792,NaN,1,1,,,
149,1,1,2240.jpg,44.6589549292112,45.1765848913928,46.3765896609839,NaN,1,1,45.5766629556456,,
150,1,1,7330.jpg,46.3884303108935,46.9060494056612,48.1060146299424,NaN,1,1,,,
151,1,1,7351.jpg,48.1177828304499,48.6354520360619,50.7296151486808,NaN,1,1,,,
152,1,1,7351.jpg,50.7413860660454,51.2589870484517,51.8589868673298,0.494116201618453,1,1,,,
153,1,1,4640.jpg,51.8707517472358,52.388412802291,52.5884048932203,NaN,1,1,,,
154,1,1,5622.jpg,52.6001697731263,53.1178269038501,53.6119609159505,NaN,1,1,52.6120179698628,,
155,1,1,5622.jpg,53.6237433044589,54.1413651160838,54.9413666858163,0.51770060036506,1,1,,,
156,1,1,2240.jpg,54.9531297544891,55.4707841683412,56.3649413038947,NaN,1,1,55.823807241075,,
157,1,1,7402.jpg,56.3767227867793,56.8943273916666,57.6002099221805,NaN,1,1,,,
158,1,1,4653.jpg,-0.0472575480234809,0.470399884565268,2.96453238729737,NaN,1,1,,,57.6591040542698
159,1,1,4611.jpg,2.97629666345892,3.49395198293496,5.78808394231601,NaN,1,1,,,
160,1,1,5628.jpg,5.79985274655337,6.3175020285853,8.41163646330824,NaN,1,1,,,
161,1,1,7460.jpg,8.42340013572539,8.94105605894583,11.2351883201918,NaN,1,1,,,
162,1,1,4640.jpg,11.2469538038276,11.764624216943,13.6587372790818,NaN,1,1,,,
163,1,1,7450.jpg,13.670500951499,14.1881595915766,14.8822766384401,NaN,1,1,,,
164,1,1,4531.jpg,14.8940406127222,15.4116989509348,17.0117069203698,NaN,1,1,,,
165,1,1,4534.jpg,17.0234935350891,17.5411410058878,19.4352555773949,NaN,1,1,,,
166,1,1,4656.jpg,19.4470249853912,19.9646935872588,21.9646863423113,NaN,1,1,,,
167,1,1,7330.jpg,21.97648805067,22.4941092585505,23.7882330673601,NaN,1,1,,,
168,1,1,7430.jpg,23.8000006641232,24.3176568892086,24.6117686231155,NaN,1,1,,,
169,1,1,7340.jpg,24.6235335030215,25.1411894262419,26.6353647948999,NaN,1,1,,,
170,1,1,4651.jpg,26.6470949594514,27.1647454489721,29.0588639448251,NaN,1,1,,,
171,1,1,7351.jpg,29.0706285228516,29.5882932003733,30.5882871629292,NaN,1,1,,,
172,1,1,4608.jpg,30.6000680420839,31.1177073623112,32.5177289763815,NaN,1,1,,,
173,1,1,7350.jpg,32.5294778570387,33.0471377046051,33.2471805101377,NaN,1,1,,,
174,1,1,7230.jpg,33.2707265710633,33.7883314778155,35.2942062200163,NaN,1,1,,,
175,1,1,1720.jpg,35.305977137381,35.8236315512331,38.0236432638922,NaN,1,1,,,
176,1,1,5270.jpg,38.0354099550314,38.5530580295745,39.7530670253764,NaN,1,1,,,
177,1,1,7351.jpg,39.7648403577041,40.2824932622025,41.9766251008259,NaN,1,1,,,
178,1,1,5628.jpg,41.9883809245512,42.5060362440272,44.9060509150295,NaN,1,1,,,
179,1,1,5628.jpg,44.9178163986799,45.4354898305173,45.729588885777,0.505935116714682,1,1,,,
180,1,1,4640.jpg,45.7413528600591,46.2590253862727,48.2590214619268,NaN,1,1,,,
181,1,1,4531.jpg,48.2707848324644,48.7884413594438,50.988455185201,NaN,1,1,50.3180179288174,,
182,1,1,5270.jpg,51.000220065107,51.5178898744634,53.8120061364607,NaN,1,1,,,
183,1,1,4651.jpg,53.8237710163667,54.3414571268513,54.941428871578,NaN,1,1,,,
184,1,1,7430.jpg,54.9531916383712,55.4708496747044,55.9649655744433,NaN,1,1,,,
185,1,1,4653.jpg,-0.000220970716327429,0.51744249931653,2.91744449167163,NaN,1,1,,,55.9768213179923
186,1,1,7330.jpg,2.92921239029965,3.44688129404676,5.94099991064286,NaN,1,1,,,
187,1,1,7340.jpg,5.95276539429324,6.47042161939316,8.96455442400475,NaN,1,1,,,
188,1,1,1720.jpg,8.97634073685913,9.49398850952275,11.6939987128135,NaN,1,1,,,
189,1,1,4608.jpg,11.705756045907,12.2234104597737,12.8234567670152,NaN,1,1,,,
190,1,1,4611.jpg,12.8469463777728,13.3645995841362,14.7646018783707,NaN,1,1,,,
191,1,1,7460.jpg,14.7763761163224,15.294037473257,17.4940383185021,NaN,1,1,,,
192,1,1,4656.jpg,17.5058062171302,18.0234714983962,20.3175859491603,NaN,1,1,,,
193,1,1,2240.jpg,20.3411259726417,20.8587746509147,21.9528982182237,NaN,1,1,,,
194,1,1,4534.jpg,21.9646640037536,22.4823313981324,23.5764395699371,NaN,1,1,,,
195,1,1,7450.jpg,23.5882056573319,24.1058730517107,25.8000178708608,NaN,1,1,,,
196,1,1,7450.jpg,25.8117691664957,26.3294118073245,27.4235305446782,0.658912063314347,1,1,27.0824806439341,,
197,1,1,7402.jpg,27.4352978395618,27.9529516496696,28.6470693002921,NaN,1,1,,,
198,1,1,7230.jpg,28.6588335764391,29.1764907071629,29.7764914316504,NaN,1,1,,,
199,1,1,5622.jpg,29.8000341719744,30.3176828502619,31.3176777184271,NaN,1,1,,,
200,1,1,7350.jpg,31.3412165344052,31.8588664201816,34.1530113600747,NaN,1,1,,,
201,1,1,4656.jpg,34.1647620519652,34.6824240126443,36.1765432329848,NaN,1,1,,,
202,1,1,4656.jpg,36.1883491675544,36.7059652436001,38.0000878449209,0.529452801623847,1,1,,,
203,1,1,5628.jpg,38.0118530266918,38.5295122705138,39.4236307663668,NaN,1,1,,,
204,1,1,4651.jpg,39.4353938350396,39.9530500601395,42.1530641877762,NaN,1,1,,,
205,1,1,4640.jpg,42.1648272564344,42.6824840852787,42.8824801005685,NaN,1,1,,,
206,1,1,4640.jpg,42.894254640385,43.4119024130487,43.906019520291,0.705977016637917,1,1,,,
207,1,1,7230.jpg,43.9177801739716,44.4354548132978,45.3295609323832,NaN,1,1,,,
208,1,1,7450.jpg,45.3413236991764,45.8589811317652,46.6590445853799,NaN,1,1,,,
209,1,1,7460.jpg,46.6707647881412,47.1884035046241,49.1884161832713,NaN,1,1,,,
210,1,1,1720.jpg,49.2001780444552,49.7178375901422,50.3178343902982,NaN,1,1,,,
211,1,1,1720.jpg,50.329600477693,50.8472600233799,52.741385462301,0.458964045756147,1,1,,,
212,1,1,7430.jpg,52.7531518515752,53.2708104916383,55.16493502495,NaN,1,1,,,
213,1,1,5270.jpg,55.1767044329463,55.6943564318208,58.1884895383118,NaN,1,1,55.6826350215706,,
214,1,1,7402.jpg,-2.37667116658122,-1.85905599615944,0.140953060021275,NaN,1,1,,,60.5768298911862
215,1,1,4534.jpg,0.152718543657102,0.670399824186461,3.07038853414997,NaN,1,1,,,
216,1,1,5622.jpg,3.08215431966528,3.59981899720151,4.3998100013996,NaN,1,1,,,
217,1,1,5622.jpg,4.41157608879439,4.92924620001577,5.72923448737129,0.635387435337179,1,1,,,
218,1,1,4653.jpg,5.7409993672627,6.25866796914488,7.65866150906368,NaN,1,1,,,
219,1,1,2240.jpg,7.67042608710472,8.18808140658075,9.18808593467111,NaN,1,1,,,
220,1,1,7330.jpg,9.19986560632242,9.71752394452051,11.7175447737391,NaN,1,1,,,
221,1,1,7340.jpg,11.7292861075839,12.2469381064584,12.6469385894452,NaN,1,1,,,
222,1,1,4608.jpg,12.6587128274114,13.17637086373,13.5763568568509,NaN,1,1,,,
223,1,1,7351.jpg,13.5881229442457,14.1057755468646,14.5998938615958,NaN,1,1,,,
224,1,1,7350.jpg,14.6116581377573,15.1293146647222,15.4234439072461,NaN,1,1,,,
225,1,1,4531.jpg,15.4352362575446,15.9528695403278,17.5528612086491,NaN,1,1,,,
226,1,1,4611.jpg,17.5646282016533,18.0822780874296,18.5763985152589,NaN,1,1,,,
227,1,1,4653.jpg,18.5881615839317,19.1058208277536,19.7999683637463,NaN,1,1,,,
228,1,1,5270.jpg,19.8117145275464,20.3293755826016,20.5293543911539,NaN,1,1,,,
229,1,1,7330.jpg,20.5411165542027,21.0587764017691,22.8588009138184,NaN,1,1,,,
230,1,1,7430.jpg,22.8705510019645,23.3882283581479,24.4823280775308,NaN,1,1,,,
231,1,1,7460.jpg,24.4940932593017,25.0117627667933,25.8117516578786,NaN,1,1,,,
232,1,1,7460.jpg,25.8235153302958,26.3411697441479,26.741168717781,0.635389850314823,1,1,,,
233,1,1,7450.jpg,26.7529335976869,27.2705910302757,28.3647148994642,NaN,1,1,,,
234,1,1,4531.jpg,28.3764791756112,28.8941329857334,31.1882667563332,NaN,1,1,,,
235,1,1,2240.jpg,31.2000307306153,31.7176896725723,33.2118152322364,NaN,1,1,,,
236,1,1,7340.jpg,33.2235779990442,33.7412290922948,35.3412379673537,NaN,1,1,,,
237,1,1,7340.jpg,35.3530049603578,35.8706608835928,36.8706859390077,0.588326104494627,1,1,,,
238,1,1,5628.jpg,36.8824351215444,37.4001067421341,38.0000923729967,NaN,1,1,,,
239,1,1,5622.jpg,38.0118509135791,38.529507440544,40.7295206625713,NaN,1,1,,,
240,1,1,5622.jpg,40.741284033109,41.258943276931,41.4589389903413,0.400077460508328,1,1,,,
241,1,1,7351.jpg,41.470705379601,41.988360699077,42.5883593104663,NaN,1,1,,,
242,1,1,7350.jpg,42.6001232847484,43.117781622961,44.6119062770158,NaN,1,1,,,
243,1,1,4534.jpg,44.6236708550423,45.1413291932404,47.3413490564562,NaN,1,1,,,
244,1,1,4651.jpg,47.3531211813097,47.8707608034165,49.2707670219825,NaN,1,1,48.0238295192685,,
245,1,1,4608.jpg,49.2825439767912,49.8001890325977,51.4943145318975,NaN,1,1,,,
246,1,1,4608.jpg,51.5060794118035,52.0237404668587,53.1178595060774,0.647150202130433,1,1,,,
247,1,1,4611.jpg,53.1296252916072,53.6472917803621,55.8472929274867,NaN,1,1,,,
248,1,1,1720.jpg,55.8590596186259,56.3767104100116,56.5767239339039,NaN,1,1,,,
249,1,1,7402.jpg,56.5884776445164,57.1061305490148,58.1061332658719,NaN,1,1,56.5885624707153,,
250,1,1,7402.jpg,-0.917888244352071,-0.400231415522285,0.79977456155757,0.611856468036422,1,1,,,59.035639378184
251,1,1,4656.jpg,0.81154125269677,1.32921076018829,2.82332001873874,NaN,1,1,,,
252,1,1,4640.jpg,2.84687634333386,3.36451717292948,4.56451107510657,NaN,1,1,,,
253,1,1,7230.jpg,4.5762780681107,5.09392855763144,6.18805363430874,NaN,1,1,,,
254,1,1,7430.jpg,6.19981760859082,6.71749647412798,7.2115900353092,NaN,1,1,,,
255,1,1,7450.jpg,7.22335461333569,7.74101264966885,9.54102116246941,NaN,1,1,,,
256,1,1,7460.jpg,9.55278574051044,10.0704422674753,12.4704566366127,NaN,1,1,,,
257,1,1,4534.jpg,12.4822269502183,12.9998819678294,15.4940129611932,NaN,1,1,,,
258,1,1,7330.jpg,15.5057724073995,16.0234322549659,17.4234650383296,NaN,1,1,,,
259,1,1,4656.jpg,17.4352220695437,17.9528625972598,18.7528859018203,NaN,1,1,,,
260,1,1,4531.jpg,18.7646278394095,19.2822822532762,21.3764151786309,NaN,1,1,,,
261,1,1,7350.jpg,21.3881773416797,21.9058314536669,24.3058699726098,NaN,1,1,,,
262,1,1,7351.jpg,24.3176221738686,24.8352705502766,26.0352744142438,NaN,1,1,,,
263,1,1,4608.jpg,26.0470417091274,26.5646952173702,29.0588400968845,NaN,1,1,,,
264,1,1,1720.jpg,29.0706116179936,29.5882515419653,30.7882834800839,NaN,1,1,,,
265,1,1,2240.jpg,30.8117854676093,31.3294546732213,32.9294490583998,NaN,1,1,,,
266,1,1,4651.jpg,32.9412103158247,33.4588804270606,35.1529971720593,NaN,1,1,,,
267,1,1,5622.jpg,35.1647620519652,35.6824412193673,36.7765376181487,NaN,1,1,,,
268,1,1,5628.jpg,36.7883118561003,37.3059551006736,39.4000904410204,NaN,1,1,,,
269,1,1,7230.jpg,39.4118544153025,39.9295296583732,42.4236446525028,NaN,1,1,40.3766581860546,,
270,1,1,7402.jpg,42.4354095324088,42.9530624369072,44.2471868494613,NaN,1,1,,,
271,1,1,4611.jpg,44.2589505218784,44.7766251612047,45.9766136296676,NaN,1,1,,,
272,1,1,7340.jpg,46.0001458044571,46.5178147082042,46.811916782186,NaN,1,1,,,
273,1,1,4653.jpg,46.8236831714457,47.3413324534777,47.6354493192193,NaN,1,1,,,
274,1,1,4640.jpg,47.6472141991253,48.1648740466917,48.4589854787191,NaN,1,1,,,
275,1,1,5270.jpg,48.470754282971,48.9884056781011,50.388437253976,NaN,1,1,,,
276,1,1,1720.jpg,50.400198511401,50.9178351147857,52.6119606140855,NaN,1,1,,,
277,1,1,7230.jpg,52.6237263996009,53.1413826247008,54.8355102370988,NaN,1,1,53.8356044213433,53.9885385020316,
278,1,1,4656.jpg,54.8472748151398,55.3649304364808,55.9649314628477,NaN,1,1,,,
279,1,1,2240.jpg,55.9766945315205,56.4943501528614,58.7884824141074,NaN,1,1,,,
280,1,1,7340.jpg,-1.76500276515435,-1.24734654005442,0.446783185456297,NaN,1,1,59.8003544587846,,60.5650716524688
281,1,1,7430.jpg,0.458548065362265,0.976220893440768,2.57621014678443,NaN,1,1,,,
282,1,1,7351.jpg,2.58797412106651,3.10563155365526,5.30564537941245,NaN,1,1,,,
283,1,1,7350.jpg,5.31740935369453,5.83506588067394,6.52918594625953,NaN,1,1,,,
284,1,1,5270.jpg,6.54094871305279,7.05860222129559,9.45861930729006,NaN,1,1,,,
285,1,1,4534.jpg,9.48216567008058,9.99982461203763,11.199808854275,NaN,1,1,,,
286,1,1,4653.jpg,11.2115734323161,11.7292356948601,13.5292393777054,NaN,1,1,,,
287,1,1,7450.jpg,13.5410217662138,14.0586870474945,14.3527746315958,NaN,1,1,,,
288,1,1,7450.jpg,14.3645404171111,14.8822150564374,16.1763210547651,0.623620140453568,1,1,,,
289,1,1,4531.jpg,16.1880913683708,16.7057418578916,19.1057571326382,NaN,1,1,,,
290,1,1,7460.jpg,19.1175250312663,19.6351767282758,21.0351829468564,NaN,1,1,,,
291,1,1,4640.jpg,21.0469481286273,21.5646179379837,22.858726955048,NaN,1,1,,,
292,1,1,4611.jpg,22.870491834954,23.3881625499198,24.788167862891,NaN,1,1,,,
293,1,1,5622.jpg,24.7999200641352,25.3175753836113,26.9175836549257,NaN,1,1,,,
294,1,1,4651.jpg,26.9293524591776,27.447005363676,29.4470168348344,NaN,1,1,,,
295,1,1,4608.jpg,29.4587865446956,29.9764388454496,30.3764354040904,NaN,1,1,,,
296,1,1,4608.jpg,30.3882005858759,30.9058700933674,32.7999861742283,0.658919610126759,1,1,,,
297,1,1,7402.jpg,32.8117510541342,33.3294051661214,34.5294102375774,NaN,1,1,,,
298,1,1,7402.jpg,34.5411751174834,35.0588331538165,36.1529527967796,0.635390755938715,1,1,,,
299,1,1,7330.jpg,36.176485877193,36.6941511584591,38.0941474152496,NaN,1,1,,,
300,1,1,5628.jpg,38.1059141063888,38.6235661052633,40.3177015663532,NaN,1,1,,,
301,1,1,7460.jpg,40.3294860679744,40.8471178413893,42.0471198941232,NaN,1,1,40.8354048835754,,
302,1,1,7330.jpg,42.0588838684052,42.5765403953847,44.4706670417945,NaN,1,1,,,
303,1,1,7330.jpg,44.4824337329337,45.000093882365,45.6000894750323,0.635385020359536,1,1,,,
304,1,1,7230.jpg,45.611894202113,46.1295477103558,47.729519153203,NaN,1,1,,,
305,1,1,7350.jpg,47.7412813162518,48.2589456919086,48.5530522939807,NaN,1,1,,,
306,1,1,4640.jpg,48.5648189851199,49.0824749083549,51.4824895793572,NaN,1,1,,,
307,1,1,4534.jpg,51.4942535536393,52.011910986228,52.5060277915909,NaN,1,1,52.153170145044,,
308,1,1,4651.jpg,52.5177932752413,53.0354488965968,54.1295694451837,NaN,1,1,,,
309,1,1,7351.jpg,54.1413340232102,54.6590047381906,55.8589953197661,NaN,1,1,,,
310,1,1,1720.jpg,55.870764425883,56.3884173303813,56.6825332904991,NaN,1,1,56.4355541293771,,
311,1,1,5628.jpg,-1.74146394917625,-1.22380832782073,0.576201694348129,NaN,1,1,,,58.4355764679494
312,1,1,5628.jpg,0.587964763020864,1.1056200824969,1.30561881462927,0.635379586645286,1,1,,,
313,1,1,7430.jpg,1.31738550576847,1.83504052336502,2.03503563303093,NaN,1,1,,,
314,1,1,2240.jpg,2.04680413540336,2.56446820919518,5.05859135388164,NaN,1,1,,,
315,1,1,7450.jpg,5.07035412067489,5.58801125138416,6.08213137736311,NaN,1,1,,,
316,1,1,4653.jpg,6.09389565351012,6.61154885988799,8.70568269086652,NaN,1,1,,,
317,1,1,7402.jpg,8.7174412314489,9.23510409773735,10.4351230553293,NaN,1,1,,,
318,1,1,4611.jpg,10.4468770678213,10.96452453862,12.6586515472736,NaN,1,1,,,
319,1,1,4656.jpg,12.6704254833603,13.1880717466556,13.3880695731787,NaN,1,1,,,
320,1,1,4531.jpg,13.3998350568145,13.9175190541864,14.7174913422932,NaN,1,1,,,
321,1,1,5270.jpg,14.7292589390418,15.2469103341864,15.6469123265415,NaN,1,1,,,
322,1,1,5270.jpg,15.6586763008236,16.1763602981955,16.5763305939327,0.705976412893506,1,1,,,
323,1,1,4608.jpg,16.588096077583,17.1057658869395,17.3998673571914,NaN,1,1,,,
324,1,1,4608.jpg,17.411631029594,17.9292875565734,18.8234084674041,0.788350495800842,1,1,,,
325,1,1,4608.jpg,18.8351742529194,19.3528292705305,19.5528249839408,0.588321576404269,1,1,,,
326,1,1,5622.jpg,19.5645904675912,20.0822584657144,21.2822517641325,NaN,1,1,,,
327,1,1,7340.jpg,21.3057812220795,21.8234314097208,22.1175485773274,NaN,1,1,,,
328,1,1,7402.jpg,22.1293170796998,22.6469733047998,24.4469833269686,NaN,1,1,,,
329,1,1,7402.jpg,24.4587623948901,24.9764122806519,26.8705325877381,0.623608971160138,1,1,,,
330,1,1,7330.jpg,26.8822959582903,27.399953994609,29.1999634130334,NaN,1,1,,,
331,1,1,1720.jpg,29.2117282929394,29.7293878386408,32.1293985852972,NaN,1,1,,,
332,1,1,4611.jpg,32.1411613520904,32.6588381045294,34.4588520510442,NaN,1,1,,,
333,1,1,5270.jpg,34.4705945923779,34.9882631942455,36.1882570964226,NaN,1,1,,,
334,1,1,5270.jpg,36.2000183538476,36.7176754845568,38.6118030365906,0.505936927947914,1,1,,,
335,1,1,7350.jpg,38.623568520241,39.1412250472058,40.3412289111729,NaN,1,1,,,
336,1,1,4608.jpg,40.3529949985677,40.8706503180438,42.1647741268534,NaN,1,1,,,
337,1,1,7230.jpg,42.1765417236165,42.6941946281149,44.1883428282308,NaN,1,1,,,
338,1,1,2240.jpg,44.2000914070086,44.7177560845448,46.2118662487046,NaN,1,1,,,
339,1,1,7340.jpg,46.2236299211218,46.7412891649437,47.5412907346763,NaN,1,1,47.1060804381705,,
340,1,1,7450.jpg,47.5530547089729,48.0707275370514,49.0707118396822,NaN,1,1,,,
341,1,1,4534.jpg,49.0824764177087,49.6001389821322,52.0001473138109,NaN,1,1,,,
342,1,1,4656.jpg,52.0119134012057,52.5295669094485,53.72959613071,NaN,1,1,,,
343,1,1,4531.jpg,53.7413598031271,54.2590102926479,55.9531206983083,NaN,1,1,,,
344,1,1,7460.jpg,55.9648901063047,56.4825421051792,57.2825442786707,NaN,1,1,56.5885075299011,56.7414784390421,
345,1,1,7460.jpg,-1.74144915741635,-1.22379685666237,0.576212561762077,0.670672415129957,1,1,,,59.0355859467381
346,1,1,7430.jpg,0.587979856645688,1.10564574167074,3.19976176216733,NaN,1,1,,,
347,1,1,7351.jpg,3.21155713120243,3.72918347090308,4.42330051776662,NaN,1,1,,,
348,1,1,5628.jpg,4.44683510753384,4.96450159630331,5.25861151897698,NaN,1,1,,,
349,1,1,5622.jpg,5.27037488951464,5.78803775580309,6.78802658652421,NaN,1,1,,,
350,1,1,4640.jpg,6.79978874957305,7.3174461821618,9.11745680807508,NaN,1,1,,,
351,1,1,4651.jpg,9.14102671692672,9.65864188736305,11.2586519698962,NaN,1,1,,,
352,1,1,4653.jpg,11.2704231891257,11.7880890741508,11.988068184568,NaN,1,1,,,
353,1,1,7350.jpg,11.9998339700833,12.5175058925524,13.4116255958943,NaN,1,1,,,
354,1,1,7350.jpg,13.423375080296,13.9411188484373,14.7410558174452,0.658919610126759,1,1,,,
355,1,1,7460.jpg,14.7528043962375,15.2704657531576,16.6704698586254,NaN,1,1,,,
356,1,1,7430.jpg,16.6822287010873,17.1998942842329,19.694015919551,NaN,1,1,,,
357,1,1,7230.jpg,19.7057783844793,20.2234385339107,20.5175514753064,NaN,1,1,,,
358,1,1,4640.jpg,20.5293139402347,21.0469840514706,22.646978738514,NaN,1,1,,,
359,1,1,4640.jpg,22.6587421090517,23.1764288232807,25.2705342782428,0.600086758175166,1,1,,,
360,1,1,5622.jpg,25.2822916113219,25.799963533791,27.5999620848015,NaN,1,1,,,
361,1,1,1720.jpg,27.6117290778202,28.1293846991612,29.7293884423852,NaN,1,1,,,
362,1,1,2240.jpg,29.7411539260356,30.2588267541287,30.5529342618102,NaN,1,1,,,
363,1,1,4611.jpg,30.5646949155052,31.0823405750562,33.1764795378695,NaN,1,1,32.1294945807895,,
364,1,1,4651.jpg,33.1882634357462,33.7059106046654,35.8000263232971,NaN,1,1,,,
365,1,1,5270.jpg,35.8235530643724,36.3412120063149,37.9412196738849,NaN,1,1,,,
366,1,1,5270.jpg,37.9529860631446,38.4706531556585,39.8706491105695,0.753064006654313,1,1,,,
367,1,1,4656.jpg,39.8824088586407,40.4000678005832,41.2941887114139,NaN,1,1,,,
368,1,1,7402.jpg,41.305959326899,41.823608608931,44.117740266418,NaN,1,1,,,
369,1,1,7340.jpg,44.1412769692979,44.6589277606836,45.4589290285512,NaN,1,1,,,
370,1,1,7330.jpg,45.4706920972239,45.9883579822344,47.1883542993892,NaN,1,1,,,
371,1,1,4531.jpg,47.2001188774157,47.7177917055087,49.6119032582938,NaN,1,1,,,
372,1,1,4653.jpg,49.6236708550568,50.1413406644133,51.4354581338994,NaN,1,1,,,
373,1,1,4653.jpg,51.4472121463914,51.9648828613717,53.1648873290833,0.717774498771178,1,1,52.7767356465629,,
374,1,1,4608.jpg,53.1766434546735,53.6943138677889,54.89432859917,NaN,1,1,,,
375,1,1,5628.jpg,54.9060798948049,55.4237343086716,55.7178351751645,NaN,1,1,,,
376,1,1,7450.jpg,55.7296151486953,56.2472544689226,58.6472703474137,NaN,1,1,56.7532252066012,56.9061798146286,
377,1,1,7351.jpg,58.6590394535451,59.1767080554127,59.5766937466542,NaN,1,1,,,
378,1,1,4534.jpg,-0.0708280606195331,0.446824843864306,1.54094901493227,NaN,1,1,,,59.6591191478947
379,1,1,4534.jpg,1.55271027235722,2.07036649745714,3.16448614042019,0.588332745697699,1,1,,,
380,1,1,4531.jpg,3.17625343530381,3.69394105515676,4.89392559927364,NaN,1,1,,,
381,1,1,4640.jpg,4.90570074284915,5.42333221439912,6.42333523312118,NaN,1,1,,,
382,1,1,7340.jpg,6.43510222612531,6.95276448866935,9.35277372597193,NaN,1,1,,,
383,1,1,5270.jpg,9.36453770026856,9.88219664221106,10.3763110325963,NaN,1,1,,,
384,1,1,7402.jpg,10.3880753087578,10.9057330432115,12.9998617423553,NaN,1,1,,,
385,1,1,4651.jpg,13.011628735374,13.5292837529705,14.9292902734305,NaN,1,1,,,
386,1,1,5628.jpg,14.9410542477126,15.458710170933,16.4587146990234,NaN,1,1,,,
387,1,1,2240.jpg,16.4704961819225,16.9881490864063,18.8822642616724,NaN,1,1,,,
388,1,1,2240.jpg,18.8940288396989,19.4116823479417,19.9058299443132,0.682475934721879,1,1,,,
389,1,1,7430.jpg,19.9293334412068,20.446987855059,21.0470106162538,NaN,1,1,,,
390,1,1,7460.jpg,21.0705216599599,21.5881878468499,22.1881719683588,NaN,1,1,,,
391,1,1,7450.jpg,22.1999362445058,22.7175933752296,24.6117330021661,NaN,1,1,,,
392,1,1,7351.jpg,24.6234830903122,25.1411384097883,26.2352637883305,NaN,1,1,,,
393,1,1,1720.jpg,26.2470522142976,26.7646993832168,28.5647075941524,NaN,1,1,,,
394,1,1,7330.jpg,28.5764616066444,29.0941311141214,30.8941257408005,NaN,1,1,,,
395,1,1,4653.jpg,30.9058909225714,31.4235438270698,32.4235477514158,NaN,1,1,,,
396,1,1,4653.jpg,32.435314442555,32.9529739882419,35.1529820784344,0.753038951210328,1,1,,,
397,1,1,4656.jpg,35.1647436377389,35.6824040890497,36.576523490512,NaN,1,1,,,
398,1,1,4611.jpg,36.6000559671811,37.1177088716795,37.3177048869547,NaN,1,1,,,
399,1,1,7350.jpg,37.3412328355189,37.8588923812204,38.3530122053053,NaN,1,1,,,
400,1,1,5622.jpg,38.3647785945795,38.8824474983267,40.1765652696777,NaN,1,1,,,
401,1,1,7230.jpg,40.1883210934029,40.7059739979013,42.7059878840373,NaN,1,1,41.90606480118,,
402,1,1,7230.jpg,42.7177515564545,43.2354207620665,43.7295236812934,0.717744915265939,1,1,,,
403,1,1,4608.jpg,43.7412864481012,44.2589447862993,44.7530612897972,NaN,1,1,,,
404,1,1,4608.jpg,44.7648294902901,45.2824953753152,46.0824845682801,0.505933305481449,1,1,,,
405,1,1,4534.jpg,46.0942494481715,46.6119159369409,47.7060265237378,NaN,1,1,,,
406,1,1,4640.jpg,47.7177907998848,48.2354467231198,48.8354489569756,NaN,1,1,48.78849931898,,
407,1,1,4640.jpg,48.8472144406114,49.3648833443585,51.7648823179916,0.858922266605077,1,1,,,
408,1,1,7460.jpg,51.776647801642,52.2943028192531,52.7884211339842,NaN,1,1,,,
409,1,1,7450.jpg,52.8001845045219,53.3178431445995,53.5178373486415,NaN,1,1,,,
410,1,1,1720.jpg,53.5296031341568,54.0472617742344,55.0472702266707,NaN,1,1,54.7532246028568,,
411,1,1,7340.jpg,55.0590248429071,55.5767003878427,57.2708098878938,NaN,1,1,,,
412,1,1,7340.jpg,57.2825901633041,57.8002548408258,58.4002305098984,0.529534609086113,1,1,,,
413,1,1,7330.jpg,-0.776713609855506,-0.259058894123882,2.03507306524261,NaN,1,1,,,59.1885544409015
414,1,1,7430.jpg,2.0468376432691,2.56450896199385,3.56449839645938,NaN,1,1,,,
415,1,1,4531.jpg,3.58802664690302,4.10569675813895,6.50569784487016,NaN,1,1,,,
416,1,1,5270.jpg,6.51746574351273,7.03513343975646,8.72924565666472,NaN,1,1,,,
417,1,1,7230.jpg,8.7410111403151,9.25866585604672,9.55278423114214,NaN,1,1,,,
418,1,1,7351.jpg,9.56454639420554,10.0822020155465,10.5763209340221,NaN,1,1,,,
419,1,1,2240.jpg,10.5880840026948,11.1057414352836,11.9057454199938,NaN,1,1,,,
420,1,1,5622.jpg,11.9175069792982,12.4351909766701,14.0351705700887,NaN,1,1,,,
421,1,1,7402.jpg,14.0469396762055,14.5645898638468,16.8587444636651,NaN,1,1,,,
422,1,1,7350.jpg,16.8704860993748,17.388158021844,17.8822600354615,NaN,1,1,,,
423,1,1,4534.jpg,17.8940270284656,18.4117140445742,19.8116888684017,NaN,1,1,,,
424,1,1,4653.jpg,19.8234519370599,20.3411126902502,20.6352226129238,NaN,1,1,,,
425,1,1,5628.jpg,20.6587532783451,21.1764085978211,23.3764450640301,NaN,1,1,,,
426,1,1,4611.jpg,23.3882138682675,23.9058420192159,26.105870636733,NaN,1,1,,,
427,1,1,4611.jpg,26.1176195173903,26.6352959679498,28.5294054076367,0.658917497028597,1,1,,,
428,1,1,4608.jpg,28.5411702875281,29.058837380042,30.0588301350945,NaN,1,1,,,
429,1,1,4608.jpg,30.0705968262337,30.5882521457097,32.9882671185915,0.682457822375,1,1,,,
430,1,1,4656.jpg,33.0000304891291,33.5176966760337,34.5176924498082,NaN,1,1,33.6589452693006,33.8118811612221,
431,1,1,4651.jpg,34.5294573297142,35.0471090267238,36.5412342845229,NaN,1,1,,,
432,1,1,4651.jpg,36.5529988625494,37.0706565970031,37.2706523104134,0.482414413083461,1,1,,,
433,1,1,4651.jpg,37.2824162847101,37.8000725097954,38.0942005448305,0.670690225597355,1,1,,,
434,1,1,4653.jpg,38.1059530479542,38.6236222535663,40.823622495067,NaN,1,1,,,
435,1,1,1720.jpg,40.8353870730934,41.3530553730961,43.2471690389939,NaN,1,1,,,
436,1,1,7430.jpg,43.258936031998,43.7765925589629,45.5766022792668,NaN,1,1,,,
437,1,1,7230.jpg,45.588365951684,46.1060233842582,47.5060522432759,NaN,1,1,,,
438,1,1,7450.jpg,47.5178017276776,48.0354645939806,48.9295737317734,NaN,1,1,,,
439,1,1,7330.jpg,48.941334083589,49.4590171753516,50.553113875998,NaN,1,1,,,
440,1,1,4611.jpg,50.5648793596483,51.0825376978464,51.5766708043375,NaN,1,1,,,
441,1,1,5622.jpg,51.5884151569044,52.1060870793735,53.7178433257213,NaN,1,1,,,
442,1,1,5628.jpg,53.7296088093717,54.2472632232384,54.8472642496054,NaN,1,1,,,
443,1,1,7351.jpg,54.8590288276318,55.3766844489728,56.8708100086515,NaN,1,1,,,
444,1,1,4656.jpg,56.882574284813,57.4002437923045,59.2002408339467,NaN,1,1,,,
445,1,1,4640.jpg,-2.44739719426434,-1.92972979988554,0.0702671813778579,NaN,1,1,60.8944680643035,,61.6592260108009
446,1,1,2240.jpg,0.08207613468403,0.599706096865702,1.59969372008345,NaN,1,1,,,
447,1,1,4534.jpg,1.61147550486203,2.12914078612812,2.92911518733308,NaN,1,1,,,
448,1,1,4531.jpg,2.95263951343077,3.47029875725275,5.76443101849873,NaN,1,1,,,
449,1,1,4531.jpg,5.77619287966809,6.2938648021518,6.78796560826595,0.647166805138113,1,1,,,
450,1,1,4608.jpg,6.79973229940515,7.31740331625042,8.41151782739325,NaN,1,1,,,
451,1,1,7350.jpg,8.42331198893953,8.94094466796378,9.63505628112762,NaN,1,1,,,
452,1,1,7340.jpg,9.65858936152654,10.1762347192125,11.4703609429998,NaN,1,1,,,
453,1,1,7402.jpg,11.4821255210409,11.999779934893,14.2939103849058,NaN,1,1,,,
454,1,1,5270.jpg,14.3056791891431,14.8233299805433,15.0233281089313,NaN,1,1,,,
455,1,1,7460.jpg,15.0350969131687,15.5527495158021,16.1527493346803,NaN,1,1,,,
456,1,1,7351.jpg,16.1645136108418,16.6821852314315,19.0821857144329,NaN,1,1,,,
457,1,1,4611.jpg,19.0939502924593,19.6116041025671,20.2116063364228,NaN,1,1,,,
458,1,1,4656.jpg,20.2233706125844,20.7410265358048,21.8351467825269,NaN,1,1,,,
459,1,1,5270.jpg,21.8469113605533,22.3645721137436,23.4586911529623,NaN,1,1,,,
460,1,1,4534.jpg,23.4704536178906,23.988113465457,25.6822386628774,NaN,1,1,,,
461,1,1,5628.jpg,25.694002033415,26.211686030787,28.3057893726364,NaN,1,1,,,
462,1,1,4608.jpg,28.3175515356852,28.8352095720184,30.9293621191027,NaN,1,1,,,
463,1,1,7340.jpg,30.9411251877755,31.4587611874013,33.5528907921689,NaN,1,1,32.117705551078,,
464,1,1,7450.jpg,33.5646538608271,34.0823224627093,34.4823084558157,NaN,1,1,,,
465,1,1,7330.jpg,34.494073939466,35.0117428432131,37.0117404282355,NaN,1,1,,,
466,1,1,4651.jpg,37.0352753198677,37.552928224366,38.1529491743277,NaN,1,1,,,
467,1,1,5622.jpg,38.1647107336321,38.6823470351374,40.0823550649366,NaN,1,1,,,
468,1,1,7460.jpg,40.0941178317444,40.6117749624536,42.4118109456613,NaN,1,1,,,
469,1,1,7460.jpg,42.4235483551602,42.9412269188324,43.1412021049036,NaN,0,1,,,
470,1,1,2240.jpg,43.1529669848096,43.6706271342409,45.8706358281779,7.36569054424763e-05,0,1,,,
471,1,1,7350.jpg,45.8823988968361,46.4000617631391,47.2941766365111,NaN,1,1,,,
472,1,1,4640.jpg,47.3059406108077,47.8236004583741,48.1177411720419,NaN,1,1,,,
473,1,1,7402.jpg,48.1294767703075,48.6471339010168,50.2471424741962,NaN,1,1,,,
474,1,1,4653.jpg,50.2589103728242,50.7765768615936,52.8706916746014,NaN,1,1,,,
475,1,1,7430.jpg,52.8824601769738,53.400114288961,54.8001343936776,NaN,1,1,53.8707867644553,,
476,1,1,4531.jpg,54.811885387433,55.3295388956758,56.4236621611199,NaN,1,1,,,
477,1,1,7230.jpg,56.4471952415333,56.9648632396566,58.3648534589738,NaN,1,1,,,
478,1,1,1720.jpg,-0.106094928050879,0.411557070823619,2.81156087441195,NaN,1,1,,,58.4825768205337
479,1,1,4653.jpg,2.82332575431792,3.34097926256072,4.63510488260363,NaN,1,1,,,
480,1,1,7350.jpg,4.64686704565247,5.16457609845384,7.65865909410059,NaN,1,1,,,
481,1,1,4531.jpg,7.67042155901436,8.18809106650588,9.58808641767246,NaN,1,1,,,
482,1,1,7402.jpg,9.59985009007505,10.1175214087998,11.0116272260057,NaN,1,1,,,
483,1,1,5622.jpg,11.0233899927989,11.5410483310116,12.0351630232617,NaN,1,1,,,
484,1,1,7460.jpg,12.0469282050472,12.5645832226437,13.4587056428427,NaN,1,1,,,
485,1,1,7460.jpg,13.4704690133804,13.9881391246163,16.0822566544812,0.776561164224404,1,1,,,
486,1,1,7460.jpg,16.0940182137856,16.6117073429923,18.7058025342849,0.753043177435757,1,1,,,
487,1,1,7351.jpg,18.7175740553794,19.2352378272917,20.5293498630781,NaN,1,1,,,
488,1,1,7351.jpg,20.5411141392251,21.0587987403414,22.8587803864939,NaN,0,1,,,
489,1,1,4534.jpg,22.8705485870014,23.3882159813802,24.1882063818339,NaN,1,1,,,
490,1,1,4640.jpg,24.1999706579809,24.7176220531255,24.917619879634,NaN,1,1,,,
491,1,1,7450.jpg,24.9293959288334,25.4588028458093,26.6470463579753,NaN,1,1,,,
492,1,1,4608.jpg,26.6705854758184,27.1882435121515,28.3882356030954,NaN,1,1,,,
493,1,1,7330.jpg,28.4000004830013,28.9176742167037,30.9176699904929,NaN,1,1,,,
494,1,1,2240.jpg,30.9294321535417,31.4471098115901,33.5412167759059,NaN,1,1,,,
495,1,1,5270.jpg,33.5529861839022,34.0706541820255,35.9647947145713,NaN,1,1,,,
496,1,1,5270.jpg,35.9765595944773,36.4942043484189,37.6941928168817,0.588313425847446,1,1,,,
497,1,1,4656.jpg,37.7059673567128,38.2236256949109,40.6236282910104,NaN,1,1,,,
498,1,1,4651.jpg,40.647160163935,41.1765966644307,41.8589391714631,NaN,1,1,41.6354858458071,,
499,1,1,7430.jpg,41.8707052588579,42.3883530315215,42.5883520655334,NaN,1,1,,,
500,1,1,7230.jpg,42.6001166435599,43.1177713592915,45.4119051299058,NaN,1,1,,,
501,1,1,1720.jpg,45.4236642742326,45.9413395172887,46.2354403837962,NaN,1,1,,,
502,1,1,5628.jpg,46.2472315266059,46.7766224443476,47.6589790790313,NaN,1,1,,,
503,1,1,4611.jpg,47.7060379948962,48.2236960312293,50.7178312508186,NaN,1,1,,,
504,1,1,7340.jpg,50.7885258837632,51.3060809815506,52.7060911244625,NaN,1,1,,,
505,1,1,4640.jpg,52.7650492535322,53.2825708434539,54.9884509589901,NaN,1,1,53.4709070304962,,
506,1,1,4611.jpg,55.0002167445055,55.5178856482526,56.4119905598491,NaN,1,1,,,
507,1,1,7230.jpg,56.4237551378756,56.9416465217073,57.7416523176653,NaN,1,1,,,
508,1,1,5622.jpg,-0.894105817205855,-0.376706183800707,0.4232938765781,NaN,1,1,,,58.6473986432684
509,1,1,4656.jpg,0.435056643371354,0.952727962096105,1.15270888374653,NaN,1,1,,,
510,1,1,4534.jpg,1.16447346177301,1.68214387488842,3.7762592916406,NaN,1,1,,,
511,1,1,2240.jpg,3.7880244734115,4.30568281162414,5.30568371723348,NaN,1,1,,,
512,1,1,7350.jpg,5.31744859713945,5.83512051960861,8.23514122806955,NaN,1,1,,,
513,1,1,7351.jpg,8.24690640984045,8.76455840871495,9.56454186610063,NaN,1,1,,,
514,1,1,7351.jpg,9.57630463289388,10.0939620654826,11.7880893760157,0.57656726204732,1,1,,,
515,1,1,7340.jpg,11.7998524446884,12.3410580513009,13.6116339879518,NaN,1,1,,,
516,1,1,5270.jpg,13.6233985659783,14.1410671678605,15.0589418279415,NaN,1,1,,,
517,1,1,5270.jpg,15.0707224052312,15.5881232461252,18.0119076656265,0.599834694570745,1,1,,,
518,1,1,4651.jpg,18.0236716399231,18.5411029699462,19.0354446703859,NaN,1,1,,,
519,1,1,4653.jpg,19.0469614110189,19.5648651716328,21.7646390087029,NaN,1,1,,,
520,1,1,4653.jpg,21.7764038886089,22.2940767166874,24.0943267275579,0.600371725886362,1,1,,,
521,1,1,1720.jpg,24.1060934186971,24.6235199187649,25.2825708434539,NaN,1,1,,,
522,1,1,7460.jpg,25.3178685018938,25.8472675701923,27.7884833197313,NaN,1,1,,,
523,1,1,7330.jpg,27.8002663119842,28.3176502480201,30.3178893310978,NaN,1,1,,,
524,1,1,5628.jpg,30.3296647765383,30.8473173791717,31.3529777918448,NaN,1,1,,,
525,1,1,5628.jpg,31.3647257668781,31.8823868219333,32.3764951748744,NaN,0,1,31.5648965663859,,
526,1,1,7450.jpg,32.3882579416677,32.9059126573993,33.9061620041466,NaN,1,1,,,
527,1,1,4531.jpg,33.9297125931625,34.4470986422966,35.9529893837462,NaN,1,1,,,
528,1,1,4531.jpg,35.9647551692615,36.5294751401962,37.682411937727,0.62365636517643,1,1,,,
529,1,1,7430.jpg,37.6941780251218,38.2118484382372,38.9062106056226,NaN,1,1,,,
530,1,1,4608.jpg,38.9298212672875,39.4473974961438,39.9532652952767,NaN,1,1,,,
531,1,1,7402.jpg,39.976833996654,40.4944506764296,42.4944793543254,NaN,1,1,,,
532,1,1,7340.jpg,42.5062907226093,43.0239074023993,45.1062769572163,NaN,1,1,,,
533,1,1,4653.jpg,45.1180376109114,45.635664554371,45.9297787032556,NaN,1,1,,,
534,1,1,4651.jpg,45.9415626011323,46.4589836674859,47.2356698069489,NaN,1,1,,,
535,1,1,5270.jpg,47.2474313662533,47.7651078168128,48.3650943532994,NaN,1,1,,,
536,1,1,4534.jpg,48.3768516863784,48.8942721490021,50.0592512473377,NaN,1,1,,,
537,1,1,5628.jpg,50.0710082785517,50.6354939963639,52.4357316304522,NaN,1,1,,,
538,1,1,7460.jpg,52.4474708511843,52.965128585638,54.5651616105024,NaN,1,1,,,
539,1,1,7430.jpg,54.5769367540779,55.094556754455,56.6357460599538,NaN,1,1,,,
540,1,1,7402.jpg,56.6475036949269,57.1651795417274,58.6593026864284,NaN,1,1,57.6591650325281,,
541,1,1,7351.jpg,-0.4236654817214,0.105764679450658,0.693988449143944,NaN,1,1,,,59.0946337319619
542,1,1,4640.jpg,0.705762988975039,1.22340985601477,1.75280288686918,NaN,1,1,,,
543,1,1,1720.jpg,1.76461244390521,2.28198853124923,2.8116647185816,NaN,1,1,,,
544,1,1,4611.jpg,2.82341782544972,3.34083375998307,5.02346697030589,NaN,1,1,,,
545,1,1,7330.jpg,5.0351986442256,5.55284641688922,6.72930965364503,NaN,1,1,,,
546,1,1,4531.jpg,6.74109777773265,7.25854208828241,9.71759488458338,NaN,1,1,,,
547,1,1,4656.jpg,9.72937365062535,10.2470141783415,11.8470040354296,NaN,1,1,,,
548,1,1,7350.jpg,11.8587840089604,12.3761824348767,14.0705612052698,NaN,1,1,,,
549,1,1,2240.jpg,14.0823118971603,14.5999735559599,15.5529556947586,NaN,1,1,,,
550,1,1,4608.jpg,15.5647115184838,16.0823215570854,18.6235458798037,NaN,1,1,,,
551,1,1,7450.jpg,18.6353192121314,19.1529537024035,21.788251783466,NaN,1,1,,,
552,1,1,5622.jpg,21.8000214933272,22.3174492008839,22.6118166208616,NaN,1,1,,,
553,1,1,7230.jpg,22.6235588603158,23.1413267782627,23.3647408605029,NaN,1,1,,,
