Trial,nBack,Valence,Image,imagePresentationTime,NoisePresentationTime,x,StimDuration,NoiseDuration,RT,Accuracy,experiment,Clock_1,Clock_2,dataOneMinPress_1,dataOneMinPress_2,dataOneMinPress_3
1,1,0,4530.jpg,0.0141170582301129,0.684714303524743,2.03743156177552,0.67059724529463,1.35271725825078,NaN,1,0,,,,,
2,1,0,4530.jpg,2.0492009591087,2.6609536327162,5.26096588873156,0.611752673607498,2.60001225601536,1.3177634643348,1,0,,,,,
3,1,0,4000.jpg,5.27273649355379,5.88450426077657,8.88452026000869,0.611767767222773,3.00001599923212,NaN,1,0,,,,,
4,1,0,6314.jpg,8.89628452551256,9.50805833018126,12.50807915937,0.611773804668701,3.00002082918877,NaN,1,0,,,,,
5,1,0,7180.jpg,12.5198370855558,13.1316154183089,14.1316139089474,0.611778332753147,0.999998490638518,NaN,1,0,,,,,
6,1,0,4490.jpg,14.1433778725791,14.755161940906,15.9551562657068,0.61178406832687,1.19999432480085,NaN,1,0,,,,,
7,1,0,4490.jpg,15.9669169087431,16.5787064107715,17.2845783402395,0.611789502028387,0.705871929468003,1.16480084427644,1,0,,,,,
8,1,0,4490.jpg,17.2963413982543,17.9081149010508,20.0140068748397,0.611773502796495,2.10589197378886,1.21185337820771,1,0,,,,,
9,1,0,7496.jpg,20.0257720459606,20.6375570199045,21.5434287078747,0.611784973943941,0.905871687970148,NaN,1,0,,,,,
10,1,0,5535.jpg,21.5551981052079,22.1669776454503,23.7669699778937,0.611779540242424,1.59999233244343,NaN,1,0,,,,,
11,1,0,2850.jpg,23.7787381677376,24.3905261604045,27.1905261000302,0.611787992666905,2.79999993962565,NaN,1,0,,,,,
12,1,0,7820.jpg,27.2022891580448,27.814089225604,29.8140732263719,0.611800067559216,1.99998400076788,NaN,1,0,,,,,
13,1,0,9045.jpg,29.8258383974926,30.4376125040337,31.9434991648702,0.611774106541134,1.5058866608365,NaN,1,0,,,,,
14,1,0,8116.jpg,31.9552634303741,32.5670499136795,33.7670388047788,0.611786483305423,1.19998889109934,NaN,1,0,,,,,
15,1,0,4525.jpg,33.7788057871335,34.3905811011637,36.0964687279916,0.611775314030183,1.70588762682792,NaN,1,0,,,,,
16,1,0,4520.jpg,36.1082390309416,36.7200080056534,39.6259041452802,0.611768974711822,2.90589613962675,NaN,1,0,,,,,
17,1,0,7830.jpg,39.6376699201458,40.2494431210698,41.1553271858045,0.611773200924063,0.905884064734664,NaN,1,0,,,,,
18,1,0,7130.jpg,41.1670908475637,41.7788658597217,43.5788724405379,0.611775012157977,1.80000658081622,NaN,1,0,,,,,
19,1,0,7130.jpg,43.5906370079142,44.2024237930918,46.9083074955797,0.611786785177628,2.70588370248788,1.22365266089855,1,0,,,,,
20,1,0,4003.jpg,46.9200735723175,47.5318464713694,48.3318488259733,0.611772899051857,0.800002354603976,NaN,1,0,,,,,
21,1,0,7237.jpg,48.3436133933494,48.955385084912,51.2612949295415,0.611771691562581,2.30590984462947,NaN,1,0,,,,,
22,1,0,8050.jpg,51.2730522519823,51.8848200192051,54.8848354146924,0.611767767222773,3.00001539548725,NaN,1,0,,,,,
23,1,0,4180.jpg,54.8966020951748,55.5083879747356,56.8142573684763,0.611785879560784,1.30586939374075,NaN,1,0,,,,,
24,1,0,7190.jpg,56.8260285770434,57.4377975517552,58.4378008723504,0.611768974711822,1.00000332059517,NaN,1,0,,,,,
25,1,0,4001.jpg,58.4495901932555,59.0731041136439,61.3672291654527,0.623513920388405,2.29412505180881,NaN,1,0,,,,,
26,1,0,2312.jpg,61.3790033927428,61.9907714618378,64.7908272478392,0.611768069094978,2.80005578600139,NaN,1,0,,,,,
27,1,0,4180.jpg,64.8025930227047,65.4260900382442,67.520217444657,0.623497015539442,2.09412740641278,NaN,1,0,,,,,
28,1,0,4530.jpg,67.5319998224991,68.1437561185742,70.9438073764911,0.6117562960751,2.80005125791695,NaN,1,0,,,,,
29,1,0,4530.jpg,70.9555945842901,71.5790786193206,72.6731945545857,0.623484035030515,1.09411593526511,1.23532908156244,1,0,,,,,
30,1,0,7130.jpg,72.6849573107284,73.2967377565876,75.802629247381,0.611780445859267,2.50589149079337,NaN,1,0,,,,,
31,1,0,7130.jpg,75.8143977390971,76.4261682231704,77.9320572989855,0.611770484073304,1.50588907581505,1.11773925417629,1,0,,,,,
32,1,0,6314.jpg,77.9438248850847,78.5556056328164,80.2614914484104,0.6117807477317,1.705885815594,NaN,1,0,,,,,
33,1,0,2312.jpg,80.2732590345097,80.885036461646,81.8850255942432,0.611777427136303,0.999989132597193,NaN,1,0,,,,,
34,1,0,7180.jpg,81.8968082739575,82.5085684943726,85.1085786372819,0.611760220415135,2.60001014290924,NaN,1,0,,,,,
35,1,0,7190.jpg,85.1203564870395,85.7321142924761,87.8380086812435,0.611757805436582,2.10589438876741,NaN,1,0,,,,,
36,1,0,7820.jpg,87.849779286066,88.4615482607778,90.8615616639079,0.611768974711822,2.40001340313006,NaN,1,0,,,,,
37,1,0,7830.jpg,90.8733253256673,91.4851009415697,94.0851128957131,0.611775615902388,2.60001195414338,NaN,1,0,,,,,
38,1,0,4525.jpg,94.0968828967907,94.7086651538839,95.5086563392126,0.611782257093182,0.799991185328736,NaN,1,0,,,,,
39,1,0,4520.jpg,95.5204215103336,96.1321919944069,99.0380899452675,0.611770484073304,2.90589795086066,NaN,1,0,,,,,
40,1,0,2850.jpg,99.0498602482173,99.6616274116955,101.461678669612,0.611767163478135,1.80005125791695,NaN,1,0,,,,,
41,1,0,8050.jpg,101.473433275203,102.096941460017,104.591091023857,0.623508184814682,2.49414956383976,NaN,1,0,,,,,
42,1,0,8050.jpg,104.60283808264,105.214611887309,107.614641289671,0.611773804668701,2.40002940236218,NaN,0,0,,,,,
43,1,0,7237.jpg,107.626403442069,108.23817362427,110.838176824116,0.611770182200871,2.60000319984647,NaN,1,0,,,,,
44,1,0,7496.jpg,110.849945315832,111.461726365436,112.461716705523,0.611781049604133,0.999990340086242,NaN,1,0,,,,,
45,1,0,8116.jpg,112.473486102856,113.085258700035,114.791203380728,0.611772597179424,1.70594468069294,NaN,1,0,,,,,
46,1,0,4490.jpg,114.802947420788,115.426448964412,117.520578182058,0.623501543624116,2.09412921764647,NaN,1,0,,,,,
47,1,0,4000.jpg,117.532345164413,118.144115648487,121.050025372367,0.611770484073531,2.90590972388031,NaN,1,0,,,,,
48,1,0,4003.jpg,121.06178420417,121.673555291987,124.37945137124,0.611771087817942,2.7058960792524,NaN,1,0,,,,,
49,1,0,5535.jpg,124.391223183551,125.002991554519,127.80300538027,0.611768370967184,2.80001382575142,NaN,1,0,,,,,
50,1,0,4001.jpg,127.814774475731,128.426564883376,130.426566996482,0.611790407645458,2.00000211310612,NaN,1,0,,,,,
51,1,0,9045.jpg,130.438336695688,131.050105066655,133.050146725033,0.611768370967184,2.00004165837777,NaN,1,0,,,,,
52,1,0,4530.jpg,133.061879897689,133.673642231211,136.37953921608,0.611762333521256,2.70589698486924,NaN,1,0,,,,,
53,1,0,4530.jpg,136.391303481584,137.003077588125,137.708976082356,0.611774106541134,0.705898494230723,1.10604019308971,1,0,,,,,
54,1,0,4003.jpg,137.720728272967,138.332512341294,141.132514695898,0.611784068327097,2.80000235460375,NaN,1,0,,,,,
55,1,0,4003.jpg,141.144279867019,141.756055181049,143.356100039274,0.611775314030183,1.60004485822424,1.0942122325298,1,0,,,,,
56,1,0,4180.jpg,143.367829589463,143.979612148428,144.685484681641,0.611782558965388,0.705872533212869,NaN,1,0,,,,,
57,1,0,6314.jpg,144.697249852762,145.309021242452,147.709034041838,0.611771389690375,2.40001279938565,NaN,1,0,,,,,
58,1,0,4001.jpg,147.720798005469,148.332584790647,149.33257603635,0.611786785177628,0.999991245703313,NaN,1,0,,,,,
59,1,0,7130.jpg,149.344381960232,149.967874749559,150.956165726687,0.623492789327202,0.98829097712769,NaN,1,0,,,,,
60,1,0,4490.jpg,150.967911879852,151.591420970284,153.685549282314,0.623509090431526,2.09412831203008,NaN,1,0,,,,,
61,1,0,4525.jpg,153.697317472157,154.309087352486,155.614986329713,0.611769880328666,1.30589897722666,NaN,1,0,,,,,
62,1,0,4520.jpg,155.626743350281,156.238514136227,157.638520294422,0.611770785945737,1.40000615819508,NaN,1,0,,,,,
63,1,0,8116.jpg,157.650283654309,158.262058968339,159.862064583164,0.611775314030183,1.60000561482502,NaN,1,0,,,,,
64,1,0,2850.jpg,159.873839414199,160.485603860826,162.085610985012,0.611764446627149,1.6000071241865,NaN,1,0,,,,,
65,1,0,9045.jpg,162.097375552389,162.709153885142,164.309157990605,0.611778332753147,1.60000410546309,NaN,1,0,,,,,
66,1,0,8050.jpg,164.332716105098,164.956226101147,167.050354111304,0.623509996048597,2.09412801015742,NaN,1,0,,,,,
67,1,0,5535.jpg,167.062118980553,167.67392538743,168.779784457138,0.611806406877349,1.105859069708,NaN,1,0,,,,,
68,1,0,7830.jpg,168.803308158189,169.41508739656,170.52102283996,0.611779238370218,1.10593544340054,NaN,1,0,,,,,
69,1,0,7496.jpg,170.532774124955,171.156271140494,172.05043350372,0.623497015539215,0.894162363225405,NaN,1,0,,,,,
70,1,0,7180.jpg,172.062217692796,172.68569569038,174.085701848575,0.623477997584359,1.40000615819508,NaN,1,0,,,,,
71,1,0,2312.jpg,174.097467925313,174.709238711259,177.215135032009,0.611770785945737,2.50589632075025,NaN,1,0,,,,,
72,1,0,2312.jpg,177.22690020313,177.838674913416,179.038677992513,0.611774710285772,1.20000307909731,1.25892160949843,1,0,,,,,
73,1,0,4000.jpg,179.050455238526,179.662217270175,182.062228560199,0.611762031648595,2.40001129002439,NaN,1,0,,,,,
74,1,0,7190.jpg,182.07400037251,182.68576904535,184.991665003854,0.611768672839389,2.3058959585037,NaN,1,0,,,,,
75,1,0,7237.jpg,185.003441042377,185.615203074026,188.215217141275,0.61176203164905,2.6000140672495,NaN,1,0,,,,,
76,1,0,7820.jpg,188.226984425502,188.838757324554,191.438770184314,0.611772899052085,2.60001285976023,NaN,1,0,,,,,
77,1,0,4001.jpg,191.450595428023,192.074074331224,193.474079885675,0.623478903201431,1.40000555445022,NaN,1,0,,,,,
78,1,0,2850.jpg,193.485842339945,194.097618559592,195.497623510298,0.611776219646799,1.40000495070581,NaN,1,0,,,,,
79,1,0,6314.jpg,195.509388983291,196.121191767701,198.027052588268,0.61180278440952,1.9058608205678,NaN,1,0,,,,,
80,1,0,8050.jpg,198.038825608069,198.650593979036,200.05059742038,0.611768370967184,1.40000344134432,NaN,1,0,,,,,
81,1,0,7130.jpg,200.062362591501,200.674166885272,203.274188499329,0.611804293771002,2.60002161405691,NaN,1,0,,,,,
82,1,0,4490.jpg,203.285972386533,203.909467590839,206.50947139443,0.623495204305527,2.60000380359088,NaN,1,0,,,,,
83,1,0,9045.jpg,206.521247131081,207.133009464602,209.133077083998,0.611762333521256,2.00006761939585,NaN,1,0,,,,,
84,1,0,4003.jpg,209.144802709847,209.756583759451,211.062475491742,0.611781049603906,1.305891732291,NaN,1,0,,,,,
85,1,0,8116.jpg,211.074209570016,211.685996958938,213.991877823827,0.611787388922039,2.30588086488842,NaN,1,0,,,,,
86,1,0,2312.jpg,214.003653258606,214.615417403361,215.815421388075,0.611764144754943,1.20000398471439,NaN,1,0,,,,,
87,1,0,7237.jpg,215.827185955452,216.438960665737,218.144865197414,0.611774710285317,1.70590453167688,NaN,1,0,,,,,
88,1,0,7830.jpg,218.156621614238,218.768390287078,220.368398618753,0.611768672839844,1.60000833167533,NaN,1,0,,,,,
89,1,0,7190.jpg,220.380170431064,220.991963857433,222.897827696723,0.611793426368422,1.9058638392903,NaN,1,0,,,,,
90,1,0,7190.jpg,222.90959105661,223.521366068768,226.521385086724,0.611775012157977,3.00001901795531,NaN,0,0,,,,,
91,1,0,7496.jpg,226.533151465334,227.144936439277,229.650818572029,0.611784973943941,2.50588213275159,NaN,1,0,,,,,
92,1,0,4520.jpg,229.662587969362,230.274399809941,233.274373848923,0.611811840578866,2.99997403898169,NaN,1,0,,,,,
93,1,0,4525.jpg,233.286143246256,233.897923692115,235.09791590381,0.611780445859495,1.19999221169473,NaN,1,0,,,,,
94,1,0,7820.jpg,235.109681678676,235.721501971679,237.62734890612,0.611820293002893,1.9058469344418,NaN,1,0,,,,,
95,1,0,4180.jpg,237.639117699709,238.250917465396,239.050889330897,0.611799765686555,0.799971865501448,NaN,1,0,,,,,
96,1,0,4530.jpg,239.062657822613,239.674427099197,242.180321004969,0.611769276584255,2.5058939057717,NaN,1,0,,,,,
97,1,0,4000.jpg,242.192092213536,242.80388111182,244.90977851931,0.611788898283976,2.10589740749037,NaN,1,0,,,,,
98,1,0,7180.jpg,244.921533124901,245.533295458422,248.239192443291,0.611762333521256,2.70589698486901,NaN,1,0,,,,,
99,1,0,7180.jpg,248.250957010667,248.862741984611,251.862752852014,0.611784973943941,3.00001086740303,1.35304901591144,1,0,,,,,
100,1,0,7180.jpg,251.874512287561,252.486286394102,255.392185854324,0.611774106540906,2.90589946022192,1.24716006084509,1,0,,,,,
101,1,0,5535.jpg,255.403976986463,256.027500264893,257.615731350556,0.62352327842973,1.58823108566276,NaN,1,0,,,,,
102,1,0,4520.jpg,257.627521275205,258.239276061919,258.945154330705,0.611754786713391,0.705878268786819,NaN,1,0,,,,,
103,1,0,4520.jpg,258.956916483103,259.568704173898,261.474583710548,0.611787690794699,1.90587953664999,1.04716754727815,1,0,,,,,
104,1,0,4003.jpg,261.486348277924,262.09812570506,263.204058129738,0.611777427136076,1.10593242467758,NaN,1,0,,,,,
105,1,0,7180.jpg,263.215810622222,263.839313373335,265.027550073823,0.623502751112937,1.18823670048732,NaN,1,0,,,,,
106,1,0,7237.jpg,265.039316754305,265.651102935738,267.051097622786,0.611786181433217,1.39999468704718,NaN,1,0,,,,,
107,1,0,5535.jpg,267.062869133225,267.674646560361,268.58051673897,0.611777427136531,0.905870178608438,NaN,1,0,,,,,
108,1,0,7830.jpg,268.592281910091,269.204061752206,271.604069419762,0.611779842114629,2.40000766755657,NaN,1,0,,,,,
109,1,0,7190.jpg,271.615831874032,272.227620772316,274.627628138,0.611788898283976,2.4000073656839,NaN,1,0,,,,,
110,1,0,4180.jpg,274.639390290398,275.251161680088,277.251172547491,0.611771389690603,2.00001086740258,NaN,1,0,,,,,
111,1,0,4490.jpg,277.262941039207,277.874722390683,279.380628371347,0.611781351476111,1.50590598066401,NaN,1,0,,,,,
112,1,0,4525.jpg,279.392399881787,280.015908368474,282.604155151496,0.623508486687115,2.58824678302199,NaN,1,0,,,,,
113,1,0,2850.jpg,282.615921228234,283.227693221669,285.227702881582,0.611771993435013,2.00000965991376,NaN,1,0,,,,,
114,1,0,8050.jpg,285.239469260192,285.851242762989,288.757138902616,0.611773502796495,2.90589613962675,NaN,1,0,,,,,
115,1,0,4530.jpg,288.768904677481,289.380689349553,292.180692307901,0.611784672071281,2.80000295834861,NaN,1,0,,,,,
116,1,0,4530.jpg,292.192458988383,292.804276262664,294.310177413371,0.611817274280384,1.50590115070736,1.15303748438964,1,0,,,,,
117,1,0,4000.jpg,294.321941377003,294.945430543862,296.933714577927,0.623489166859599,1.98828403406469,NaN,1,0,,,,,
118,1,0,4001.jpg,296.945461334837,297.568974651481,299.06309795243,0.623513316643766,1.49412330094947,NaN,1,0,,,,,
119,1,0,7130.jpg,299.074867953508,299.686639343198,301.792530411371,0.611771389690148,2.10589106817224,NaN,1,0,,,,,
120,1,0,7820.jpg,301.81606045174,302.427835463898,305.027849229275,0.611775012157977,2.60001376537684,NaN,1,0,,,,,
121,1,0,7496.jpg,305.051374439687,305.66315277244,308.063165571826,0.611778332753147,2.40001279938588,NaN,1,0,,,,,
122,1,0,9045.jpg,308.074947949668,308.686717829997,309.686706056977,0.611769880328666,0.999988226980349,NaN,1,0,,,,,
123,1,0,9045.jpg,309.698470624353,310.310247145873,312.91026091125,0.611776521519459,2.60001376537684,1.08245641945041,1,0,,,,,
124,1,0,6314.jpg,312.922029704838,313.533799887039,314.239684797016,0.611770182200871,0.705884909977158,NaN,1,0,,,,,
125,1,0,8116.jpg,314.251449666265,314.863222263445,316.463231802609,0.611772597179424,1.6000095391646,NaN,1,0,,,,,
126,1,0,2312.jpg,316.486760031745,317.098544703817,319.49854542831,0.611784672071735,2.40000072449357,NaN,1,0,,,,,
127,1,0,2312.jpg,319.510309693814,320.122107044522,322.627984951062,0.611797350708457,2.50587790653981,1.05891671916743,1,0,,,,,
128,1,0,4525.jpg,322.639746499715,323.251521813746,324.757408172709,0.611775314030183,1.50588635896383,NaN,1,0,,,,,
129,1,0,9045.jpg,324.769172136341,325.380942922287,327.780956023545,0.611770785945737,2.40001310125763,NaN,1,0,,,,,
130,1,0,4180.jpg,327.79274534445,328.416274962198,331.204514258787,0.623529617747863,2.78823929658938,NaN,1,0,,,,,
131,1,0,7830.jpg,331.216283354248,331.828053234577,333.028056615547,0.611769880328666,1.20000338096997,NaN,1,0,,,,,
132,1,0,8050.jpg,333.039822088539,333.651608873718,334.651599213804,0.611786785178083,0.999990340086242,NaN,1,0,,,,,
133,1,0,5535.jpg,334.663368309265,335.275134265253,336.475141872435,0.611765955988631,1.20000760718222,NaN,1,0,,,,,
134,1,0,2850.jpg,336.498676440889,337.110445415601,338.616333887671,0.611768974712049,1.50588847207018,NaN,1,0,,,,,
135,1,0,2850.jpg,338.628098153175,339.23987407095,340.545760973284,0.611775917774594,1.30588690233435,1.21186062314291,1,0,,,,,
136,1,0,7237.jpg,340.557552105423,341.169312929583,344.075209974827,0.611760824159774,2.90589704524382,NaN,1,0,,,,,
137,1,0,8116.jpg,344.086982994627,344.698737177597,345.498761870751,0.611754182969435,0.800024693154228,NaN,1,0,,,,,
138,1,0,7180.jpg,345.510498062131,346.122278809862,348.228169878034,0.611780747731245,2.10589106817224,NaN,1,0,,,,,
139,1,0,4490.jpg,348.239938973495,348.85171096693,349.851747795351,0.611771993435013,1.00003682842089,NaN,1,0,,,,,
140,1,0,4000.jpg,349.863504212175,350.487025377499,353.181146021972,0.623521165323837,2.69412064447306,NaN,1,0,,,,,
141,1,0,4003.jpg,353.192916324922,353.804688318357,354.910572141594,0.611771993435013,1.10588382323658,NaN,1,0,,,,,
142,1,0,7130.jpg,354.922340935182,355.534124701637,357.44000333267,0.611783766454664,1.90587863103337,NaN,1,0,,,,,
143,1,0,7190.jpg,357.463532769295,358.075308385197,361.075324686302,0.611775615902388,3.00001630110455,NaN,1,0,,,,,
144,1,0,4001.jpg,361.087110988484,361.698863963964,363.204751530417,0.611752975479703,1.50588756645357,NaN,1,0,,,,,
145,1,0,7820.jpg,363.216520022133,363.828293223057,364.628313689999,0.611773200923835,0.800020466941987,NaN,1,0,,,,,
146,1,0,6314.jpg,364.640056220698,365.251831232855,366.45184185876,0.611775012157523,1.20001062590518,NaN,1,0,,,,,
147,1,0,7496.jpg,366.463604313031,367.075390192591,368.675392788693,0.611785879560557,1.60000259610206,NaN,1,0,,,,,
148,1,0,2312.jpg,368.687155846708,369.298924217675,370.804807859789,0.611768370967184,1.50588364211353,NaN,1,0,,,,,
149,1,0,4520.jpg,370.816576653377,371.428346835578,372.628351725909,0.611770182201326,1.200004890331,NaN,1,0,,,,,
150,1,0,4530.jpg,372.640118708264,373.251891607316,376.157788350688,0.61177289905163,2.90589674337161,NaN,1,0,,,,,
151,1,0,6314.jpg,376.16955382368,376.781324005882,379.08722328498,0.611770182201326,2.30589927909841,NaN,1,0,,,,,
152,1,0,4180.jpg,379.09898694674,379.710762562642,382.710819616507,0.611775615902388,3.00005705386502,NaN,1,0,,,,,
153,1,0,7830.jpg,382.72254312925,383.334317235791,385.040206673853,0.611774106540906,1.7058894380616,NaN,1,0,,,,,
154,1,0,4520.jpg,385.051972448719,385.663748366494,388.569643902375,0.611775917775049,2.90589553588188,NaN,1,0,,,,,
155,1,0,4530.jpg,388.581408771624,389.193197368036,389.899110955882,0.61178859641177,0.705913587845771,NaN,1,0,,,,,
156,1,0,7820.jpg,389.910861033387,390.53437163318,392.628522887505,0.623510599793008,2.09415125432452,NaN,1,0,,,,,
157,1,0,2312.jpg,392.640289266115,393.263803186504,395.852051478887,0.623513920388177,2.58824829238392,NaN,1,0,,,,,
158,1,0,7496.jpg,395.863819064987,396.475621849396,397.675594137519,0.61180278440952,1.19997228812281,NaN,1,0,,,,,
159,1,0,8050.jpg,397.687365044213,398.299131905819,401.205085401184,0.611766861605702,2.90595349536443,NaN,1,0,,,,,
160,1,0,4525.jpg,401.216836988051,401.840337022314,404.334467870071,0.623500034262634,2.49413084775688,NaN,1,0,,,,,
161,1,0,4001.jpg,404.34623545617,404.958020128242,407.558026648683,0.611784672071735,2.60000652044164,NaN,1,0,,,,,
162,1,0,5535.jpg,407.569792121676,408.181555360814,410.181585246172,0.611763239138327,2.00002988535789,NaN,1,0,,,,,
163,1,0,8116.jpg,410.193346492953,410.80512392009,413.405123497468,0.611777427136531,2.59999957737864,NaN,1,0,,,,,
164,1,0,4000.jpg,413.416892291057,414.028663077002,415.428712101064,0.611770785945737,1.4000490240619,NaN,1,0,,,,,
165,1,0,9045.jpg,415.440459461719,416.063971269002,417.252210082595,0.623511807282284,1.18823881359367,NaN,1,0,,,,,
166,1,0,7130.jpg,417.263978272439,417.875749964001,419.275754310963,0.611771691562353,1.4000043469614,NaN,1,0,,,,,
167,1,0,2850.jpg,419.287522500807,419.899305059772,422.005185260542,0.611782558965842,2.10588020076921,NaN,1,0,,,,,
168,1,0,7180.jpg,422.016954657875,422.628762875986,425.22873830358,0.611808218111037,2.59997542759447,NaN,1,0,,,,,
169,1,0,4003.jpg,425.252289173138,425.864043959852,427.169931465931,0.611754786713846,1.30588750607876,NaN,1,0,,,,,
170,1,0,4003.jpg,427.181695731435,427.793482818485,429.393475150929,0.611787087049834,1.59999233244389,1.21190862083904,1,0,,,,,
171,1,0,4490.jpg,429.405243944517,430.017013221101,432.722966052346,0.6117692765838,2.70595283124521,NaN,1,0,,,,,
172,1,0,7190.jpg,432.734728506617,433.358217069731,435.452347494867,0.623488563114734,2.09413042513597,NaN,1,0,,,,,
173,1,0,7237.jpg,435.464112665988,436.07591182793,439.075899753038,0.611799161942145,2.99998792510814,NaN,1,0,,,,,
174,1,0,2312.jpg,439.087663414798,439.699445671891,440.805324665171,0.611782257093182,1.10587899327993,NaN,1,0,,,,,
175,1,0,8050.jpg,440.817088025058,441.428872999002,444.028877406337,0.611784973943941,2.60000440733575,NaN,1,0,,,,,
176,1,0,4001.jpg,444.040640766224,444.652415778382,446.958309623779,0.611775012157523,2.30589384539735,NaN,1,0,,,,,
177,1,0,7237.jpg,446.970073285539,447.581849505186,448.781853188028,0.611776219646799,1.20000368284218,NaN,1,0,,,,,
178,1,0,9045.jpg,448.793614132936,449.40539246569,451.205399952123,0.611778332753602,1.80000748643306,NaN,1,0,,,,,
179,1,0,7190.jpg,451.217163613882,451.82893862604,453.428944240865,0.611775012157977,1.60000561482457,NaN,1,0,,,,,
180,1,0,7830.jpg,453.440713034453,454.052492574696,456.158375794188,0.611779540242424,2.10588321949217,NaN,1,0,,,,,
181,1,0,4490.jpg,456.170141267181,456.781927146742,459.381930950333,0.611785879560557,2.60000380359133,NaN,1,0,,,,,
182,1,0,4490.jpg,459.393692800859,460.005470227995,460.911352179623,0.611777427136076,0.905881951628544,1.11774287664366,1,0,,,,,
183,1,0,8116.jpg,460.923116445128,461.534895079753,464.134906128279,0.611778634625352,2.60001104852654,NaN,1,0,,,,,
184,1,0,4530.jpg,464.158431942436,464.770209369573,467.476106354442,0.611777427136531,2.70589698486901,NaN,1,0,,,,,
185,1,0,4000.jpg,467.487876657392,468.099655895762,469.605535009791,0.611779238370218,1.50587911402909,NaN,1,0,,,,,
186,1,0,6314.jpg,469.629065653905,470.24083764734,471.946727689146,0.611771993435013,1.70589004180647,NaN,1,0,,,,,
187,1,0,7130.jpg,471.958496180862,472.570265759319,474.570277532339,0.61176957845646,2.00001177302011,NaN,1,0,,,,,
188,1,0,7496.jpg,474.582045118438,475.193824356808,477.499710655398,0.611779238370218,2.30588629858948,NaN,1,0,,,,,
189,1,0,4180.jpg,477.511502391281,478.123257479867,480.523261524956,0.611755088586051,2.40000404508874,NaN,1,0,,,,,
190,1,0,4180.jpg,480.535026997949,481.146802915724,483.65269470839,0.611775917774594,2.50589179266581,1.08244706140886,1,0,,,,,
191,1,0,4525.jpg,483.664467728191,484.276233684179,485.876241713982,0.611765955988631,1.60000802980312,NaN,1,0,,,,,
192,1,0,2850.jpg,485.89977416933,486.511544653404,488.217443751379,0.611770484073531,1.70589909797536,NaN,1,0,,,,,
193,1,0,7180.jpg,488.240978621705,488.852740351482,491.758636792981,0.61176172977639,2.90589644149941,NaN,1,0,,,,,
194,1,0,7180.jpg,491.770401360357,492.382176372515,494.382187843662,0.611775012157523,2.00001147114745,1.16482650342186,1,0,,,,,
195,1,0,5535.jpg,494.393955429762,495.00572651758,497.711621087471,0.611771087818397,2.70589456989046,NaN,1,0,,,,,
196,1,0,7820.jpg,497.723390484804,498.335160968877,499.641095567035,0.611770484073077,1.30593459815827,NaN,1,0,,,,,
197,1,0,4003.jpg,499.652843833307,500.276378884757,502.370532855932,0.623535051449835,2.09415397117527,NaN,1,0,,,,,
198,1,0,4520.jpg,502.394038444645,503.017548440694,505.111676752723,0.623509996048597,2.09412831202962,NaN,1,0,,,,,
199,1,0,9045.jpg,505.12344524444,505.735214521024,508.735231124,0.611769276584255,3.0000166029763,NaN,1,0,,,,,
200,1,0,8050.jpg,508.74700142695,509.35878187281,510.264666541289,0.611780445859495,0.905884668479302,NaN,1,0,,,,,
201,1,0,7820.jpg,510.276417826284,510.888194347803,512.794082336878,0.611776521519459,1.90588798907493,NaN,1,0,,,,,
202,1,0,4520.jpg,512.805847809871,513.417634595049,515.323515339188,0.611786785177628,1.90588074413972,NaN,1,0,,,,,
203,1,0,7130.jpg,515.335279000948,515.94705461685,516.852940492819,0.611775615902388,0.905885875968579,NaN,1,0,,,,,
204,1,0,4180.jpg,516.864702645216,517.476477053629,520.276492690615,0.611774408413112,2.80001563698534,NaN,1,0,,,,,
205,1,0,8116.jpg,520.28826238982,520.900033175766,523.700046397773,0.611770785945737,2.80001322200678,NaN,1,0,,,,,
206,1,0,8116.jpg,523.711810361404,524.323589599775,526.029476019113,0.611779238370218,1.70588641933864,1.18833329962445,1,0,,,,,
207,1,0,8116.jpg,526.041242397723,526.653026466051,529.158910108164,0.611784068327324,2.50588364211308,1.15303174881592,1,0,,,,,
208,1,0,7237.jpg,529.17067859988,529.782450593315,530.782451800804,0.611771993435013,1.00000120748928,NaN,1,0,,,,,
209,1,0,4530.jpg,530.794216971925,531.405990474721,533.511884561617,0.611773502796495,2.10589408689521,NaN,1,0,,,,,
210,1,0,4490.jpg,533.523652449588,534.135422028045,535.441320703399,0.61176957845646,1.305898675354,NaN,1,0,,,,,
211,1,0,5535.jpg,535.453075610861,536.064860282933,537.770739155464,0.611784672071735,1.70587887253123,NaN,1,0,,,,,
212,1,0,4003.jpg,537.782501307862,538.394273603169,541.100178436718,0.611772295307219,2.70590483354908,NaN,1,0,,,,,
213,1,0,4001.jpg,541.111959305199,541.723712884423,542.829652554036,0.611753579224569,1.10593966961278,NaN,1,0,,,,,
214,1,0,7830.jpg,542.841395386606,543.464901156442,544.853158444621,0.623505769836356,1.38825728817847,NaN,1,0,,,,,
215,1,0,2312.jpg,544.876671580142,545.488445686683,547.288453474988,0.611774106540906,1.80000778830527,NaN,1,0,,,,,
216,1,0,2312.jpg,547.300218646109,547.912006035031,549.417880319103,0.611787388922494,1.50587428407198,1.15305137051564,1,0,,,,,
217,1,0,4000.jpg,549.429650923925,550.041420200509,552.641448153885,0.611769276584255,2.60002795337505,NaN,1,0,,,,,
218,1,0,6314.jpg,552.664966119362,553.276739018414,556.276755923263,0.611772899052085,3.00001690484896,NaN,1,0,,,,,
219,1,0,4525.jpg,556.288522301873,556.900294295308,557.900297615903,0.611771993434559,1.00000332059562,NaN,1,0,,,,,
220,1,0,7180.jpg,557.912066711364,558.523836893565,559.723840274535,0.611770182200871,1.20000338096997,NaN,1,0,,,,,
221,1,0,7190.jpg,559.735608162506,560.34737864658,562.653299056739,0.611770484073531,2.30592041015962,NaN,1,0,,,,,
222,1,0,7190.jpg,562.665057284798,563.276817807085,564.87682613876,0.611760522287113,1.60000833167578,1.23544198180343,1,0,,,,,
223,1,0,7496.jpg,564.900349839812,565.512122135119,568.512137530606,0.611772295307219,3.00001539548748,NaN,1,0,,,,,
224,1,0,2850.jpg,568.535723417351,569.159208659871,572.147460393599,0.623485242520019,2.98825173372779,NaN,1,0,,,,,
225,1,0,2850.jpg,572.15922556472,572.77103227347,574.971010297166,0.611806708749555,2.19997802369653,1.22362428490214,1,0,,,,,
226,1,0,9045.jpg,574.982777279521,575.594558630997,578.300444144719,0.611781351476111,2.70588551372202,NaN,1,0,,,,,
227,1,0,7496.jpg,578.312209013967,578.923986139231,580.523993867162,0.61177712526387,1.60000772793092,NaN,1,0,,,,,
228,1,0,7180.jpg,580.535754812071,581.147531635463,583.347541657623,0.611776823391665,2.20001002216031,NaN,1,0,,,,,
229,1,0,4003.jpg,583.359304715638,583.971079124051,586.97110387758,0.611774408413112,3.00002475352903,NaN,1,0,,,,,
230,1,0,2850.jpg,586.982872973041,587.594677266812,589.594641344008,0.611804293771002,1.99996407719618,1.23538039985397,0,0,,,,,
231,1,0,7237.jpg,589.606412552575,590.218234053067,593.124103024187,0.611821500492169,2.90586897111962,NaN,1,0,,,,,
232,1,0,4001.jpg,593.135845554885,593.747620868915,596.147633064556,0.611775314030638,2.40001219564101,NaN,1,0,,,,,
233,1,0,2312.jpg,596.159397933805,596.771172945962,598.571180130523,0.611775012157523,1.80000718456085,NaN,1,0,,,,,
234,1,0,4525.jpg,598.582944094155,599.194716993207,601.39472731724,0.61177289905163,2.20001032403297,NaN,1,0,,,,,
1,1,0,7237.jpg,0.0110922977582959,0.634608029380615,1.32847359175821,0.623515731622319,0.693865562377596,NaN,1,1,,,,,
2,1,0,7190.jpg,1.34023846100672,1.95202192558918,4.35202566880571,0.611783464582459,2.40000374321653,NaN,1,1,,,,,
3,1,0,4525.jpg,4.36379627362794,4.97555136221354,5.97556675770102,0.611755088585596,1.00001539548748,NaN,1,1,,,,,
4,1,0,4000.jpg,5.98731804269619,6.59909033800341,8.90497844782703,0.611772295307219,2.30588810982363,NaN,1,1,,,,,
5,1,0,5535.jpg,8.91674422269216,9.52851802736086,11.03440499007,0.611773804668701,1.50588696270916,NaN,1,1,,,,,
6,1,0,2312.jpg,11.0461734817859,11.6579382302857,12.7638332227975,0.611764748499809,1.10589499251182,NaN,1,1,,,,,
7,1,0,8050.jpg,12.7755811871971,13.3873577087165,14.1873561389807,0.611776521519459,0.799998430264168,NaN,1,1,,,,,
8,1,0,8116.jpg,14.1991210082292,14.8108948128979,15.5167748929184,0.611773804668701,0.705880080020506,NaN,1,1,,,,,
9,1,0,4003.jpg,15.5285539501651,16.1403129630908,18.1403162836864,0.611759012925631,2.00000332059562,NaN,1,1,,,,,
10,1,0,7830.jpg,18.1520811529349,18.7638558632202,21.2697449390353,0.611774710285317,2.50588907581505,NaN,1,1,,,,,
11,1,0,4530.jpg,21.2815082989223,21.8932878391647,22.9991626062324,0.611779540242424,1.10587476706769,NaN,1,1,,,,,
12,1,0,6314.jpg,23.0109347204161,23.6227042988726,26.6227118456804,0.61176957845646,3.00000754680786,NaN,1,1,,,,,
13,1,0,6314.jpg,26.6344761111841,27.2462613870007,28.6462735826417,0.611785275816601,1.40001219564101,1.20009092393775,1,1,,,,,
14,1,0,4490.jpg,28.6580369425287,29.2697896161362,31.469811109444,0.611752673607498,2.20002149330776,NaN,1,1,,,,,
15,1,0,4490.jpg,31.4815602813328,32.0933368028523,34.5992240674332,0.611776521519459,2.50588726458091,1.09420227074406,1,1,,,,,
16,1,0,4490.jpg,34.6110161051893,35.222759118883,37.6227664845669,0.61174301369374,2.4000073656839,1.1765457899528,1,1,,,,,
17,1,0,7496.jpg,37.6345370893896,38.2463169315042,40.5522017207322,0.611779842114629,2.305884789228,NaN,1,1,,,,,
18,1,0,7496.jpg,40.5639581375563,41.175728923502,43.2816202935464,0.611770785945737,2.10589137004445,1.341271166154,1,1,,,,,
19,1,0,4180.jpg,43.2933872759013,43.9051828153756,45.9051740610789,0.611795539474315,1.99999124570331,NaN,1,1,44.3523118437483,,,,
20,1,0,7130.jpg,45.9169337984981,46.5287127349961,47.3287005997295,0.611778936498013,0.799987864733339,NaN,1,1,,,,,
21,1,0,7820.jpg,47.3404718082966,47.9522658384094,50.7522476656968,0.611794030112833,2.79998182728741,NaN,1,1,,,,,
22,1,0,7180.jpg,50.7640227986035,51.3758077725474,54.3757935845492,0.611784973943941,2.9999858120018,NaN,1,1,,,,,
23,1,0,7180.jpg,54.3875608687763,54.9993343715728,56.1052299678295,0.611773502796495,1.10589559625669,1.12954064997348,1,1,,,,,
24,1,0,9045.jpg,56.1169863846535,56.7287553593651,58.6346430465678,0.611768974711595,1.90588768720272,NaN,1,1,,,,,
25,1,0,4520.jpg,-2.52996973126437,-1.91821977450763,0.79943543841955,0.611749956756739,2.71765521292718,NaN,1,1,,,61.0229942170322,0.152240541510309,
26,1,0,2850.jpg,0.811207552603719,1.42298679097348,4.42300912952396,0.611779238369763,3.00002233855048,NaN,1,1,,,,,
27,1,0,4001.jpg,4.43477309315585,5.04652637050776,5.95241677456079,0.611753277351909,0.905890404053025,NaN,1,1,,,,,
28,1,0,7190.jpg,5.96419160559526,6.57595665596727,7.57596752337031,0.611765050372014,1.00001086740303,NaN,1,1,,,,,
29,1,0,4490.jpg,7.58771126155762,8.19947933065259,9.10536611223779,0.611768069094978,0.905886781585195,NaN,1,1,,,,,
30,1,0,4003.jpg,9.11713762267709,9.72890388053838,12.6347994164203,0.611766257861291,2.90589553588188,NaN,1,1,,,,,
31,1,0,4000.jpg,12.6465667006473,13.2583377884653,15.2583492596127,0.611771087817942,2.00001147114745,NaN,1,1,,,,,
32,1,0,4000.jpg,15.270099940863,15.8818852166796,18.3877751981113,0.611785275816601,2.50588998143166,1.24715885335627,1,1,,,,,
33,1,0,4000.jpg,18.3995343317861,19.0113171926237,21.8113292071416,0.611782860837593,2.80001201451796,1.17656843037548,1,1,,,,,
34,1,0,4520.jpg,21.8230934726453,22.4348705979096,23.9407479007045,0.611777125264325,1.50587730279494,NaN,1,1,,,,,
35,1,0,4520.jpg,23.952512769953,24.5642968382799,26.3642907404596,0.61178406832687,1.79999390217972,1.4353889126528,1,1,,,,,
36,1,0,4525.jpg,26.3760598359204,26.9878511491825,29.6937279086073,0.611791313262074,2.70587675942488,NaN,1,1,,,,,
37,1,0,7496.jpg,29.7054879478992,30.317281978012,32.6231948413647,0.611794030112833,2.30591286335266,NaN,1,1,,,,,
38,1,0,2850.jpg,32.6349271084046,33.2466894419258,35.7525842533141,0.611762333521256,2.50589481138832,NaN,1,1,35.0232529215955,,,,
39,1,0,2850.jpg,35.7643527450305,36.3761519069726,38.5761290250521,0.611799161942145,2.19997711807946,1.40018184787505,1,1,,,,,
40,1,0,2312.jpg,38.587898422385,39.1996737364152,41.5055594312607,0.611775314030183,2.30588569484553,NaN,1,1,,,,,
41,1,0,7830.jpg,41.5173276211044,42.1291122931761,43.8349857320054,0.611784672071735,1.70587343882926,NaN,1,1,,,,,
42,1,0,4001.jpg,43.8467509031266,44.4585307452412,45.3644148099761,0.611779842114629,0.905884064734892,NaN,1,1,,,,,
43,1,0,7237.jpg,45.3761760567568,45.9879462389581,48.2938763090315,0.611770182201326,2.30593007007337,NaN,1,1,,,,,
44,1,0,6314.jpg,48.3056106891777,48.9173757395492,50.7173829241101,0.611765050371559,1.80000718456085,NaN,1,1,,,,,
45,1,0,8050.jpg,50.7291526233157,51.3409264279844,52.4468060250088,0.611773804668701,1.10587959702434,NaN,1,1,,,,,
46,1,0,8050.jpg,52.4585705923851,53.0703471139045,55.6703753691522,0.611776521519459,2.60002825524771,1.22362186992405,1,1,,,,,
47,1,0,7820.jpg,55.6821562376326,56.3056638187027,59.1998204463544,0.623507581070044,2.89415662765168,NaN,1,1,56.8939933147358,,,,
48,1,0,4530.jpg,59.2115925605381,59.8351179520741,60.8233292349137,0.623525391536077,0.988211282839529,NaN,1,1,,,,,
49,1,0,5535.jpg,-1.41209252144563,-0.800322339244758,1.90557313626323,0.611770182200871,2.70589547550799,NaN,1,1,,,62.0940193361284,0.152827683139094,
50,1,0,9045.jpg,1.91734223172398,2.5291311300075,5.03504465747892,0.611788898283521,2.50591352747142,NaN,1,1,,,,,
51,1,0,7130.jpg,5.04682854468274,5.67032284337165,8.65856189846272,0.623494298688911,2.98823905509107,NaN,1,1,,,,,
52,1,0,7180.jpg,8.67032857894537,9.28209725178476,10.0820993045163,0.611768672839389,0.800002052731543,NaN,1,1,,,,,
53,1,0,4180.jpg,10.0938650793819,10.7056352615828,13.4115316427074,0.611770182200871,2.7058963811246,NaN,1,1,,,,,
54,1,0,8116.jpg,13.4233037568915,14.0350835990062,16.140961686669,0.611779842114629,2.10587808766286,NaN,1,1,,,,,
55,1,0,7190.jpg,16.1527274615346,16.7645009643311,17.5645006020845,0.611773502796495,0.799999637753444,NaN,1,1,,,,,
56,1,0,6314.jpg,17.5762651694604,18.1880368610232,19.7880430795926,0.611771691562808,1.60000621856943,NaN,1,1,,,,,
57,1,0,4520.jpg,19.7998145900319,20.4115832628713,22.4115905078065,0.611768672839389,2.0000072449352,NaN,1,1,,,,,
58,1,0,4490.jpg,22.4233602070121,23.0351315967023,25.4351528485122,0.611771389690148,2.4000212518099,NaN,1,1,,,,,
59,1,0,2312.jpg,25.4469062466133,26.0586794475375,26.8586802927798,0.61177320092429,0.800000845242266,NaN,1,1,,,,,
60,1,0,4000.jpg,26.8704481807513,27.4822376827801,29.9881490971452,0.611789502028842,2.50591141436507,NaN,1,1,,,,,
61,1,0,7820.jpg,29.9998768361006,30.6116639231504,31.5175356111208,0.611787087049834,0.905871687970375,NaN,1,1,,,,,
62,1,0,4525.jpg,31.5293004803693,32.1410733794214,32.9410730171744,0.611772899052085,0.79999963775299,NaN,1,1,,,,,
63,1,0,4003.jpg,32.9528424145074,33.5646228603669,36.5646276903235,0.611780445859495,3.00000482995665,NaN,1,1,,,,,
64,1,0,9045.jpg,36.5763928614447,37.1881669679856,39.2940984870461,0.611774106540906,2.1059315190605,NaN,1,1,,,,,
65,1,0,9045.jpg,39.3058512814027,39.929370031748,41.5176041361337,0.623518750345283,1.58823410438572,1.22358956958715,1,1,40.8353905427634,40.9882779966183,,,
66,1,0,4001.jpg,41.5293699109989,42.1411403950724,44.541151986969,0.611770484073531,2.4000115918966,NaN,1,1,,,,,
67,1,0,5535.jpg,44.5529177618341,45.1647027357781,46.2705753897399,0.611784973943941,1.1058726539618,NaN,1,1,,,,,
68,1,0,5535.jpg,46.2823408627328,46.8941158748908,49.4941731098793,0.611775012157977,2.60005723498853,NaN,0,1,,,,,
69,1,0,4530.jpg,49.5059488465308,50.1294301647108,52.3176756194948,0.623481318179984,2.18824545478401,NaN,1,1,,,,,
70,1,0,7237.jpg,52.3294447149556,52.9412139915398,55.5412778677191,0.611769276584255,2.60006387617932,NaN,1,1,,,,,
71,1,0,4180.jpg,55.5530508875195,56.1765430731025,57.8706546614067,0.623492185583018,1.69411158830417,NaN,1,1,,,,,
72,1,0,4180.jpg,57.8824249643562,58.4942558228904,60.6941964144212,0.611830858534177,2.19994059153078,1.15305620047229,1,1,59.9531892657833,,,,
73,1,0,2850.jpg,-0.776809807468908,-0.16501185301604,0.940843292352383,0.611797954452868,1.10585514536842,NaN,1,1,,,61.3295929342562,0.152773949869697,
74,1,0,7496.jpg,0.964396275016497,1.57615136360255,3.57617309840816,0.611755088586051,2.00002173480561,NaN,1,1,,,,,
75,1,0,7830.jpg,3.58793343957223,4.19970573487944,6.5997061575008,0.611772295307219,2.40000042262136,NaN,1,1,,,,,
76,1,0,8116.jpg,6.61147374360007,7.22324543516243,7.92912611892734,0.611771691562353,0.705880683764917,NaN,1,1,,,,,
77,1,0,8050.jpg,7.94089612000516,8.55266569846162,11.3526801279577,0.61176957845646,2.80001442949606,NaN,1,1,,,,,
78,1,0,8050.jpg,11.364444695334,11.9762725351447,14.4821105945407,0.611827839810758,2.50583805939596,1.17657627905555,1,1,,,,,
79,1,0,7180.jpg,14.4938818031073,15.1056501740745,16.7056585057503,0.611768370967184,1.60000833167578,NaN,1,1,,,,,
80,1,0,7130.jpg,16.7174282049555,17.3292089526872,19.6350913269371,0.6117807477317,2.3058823742499,NaN,1,1,,,,,
81,1,0,8050.jpg,19.6468622336315,20.2586312083436,22.6586400833894,0.611768974712049,2.40000887504584,NaN,1,1,,,,,
82,1,0,8116.jpg,22.6704055563823,23.282182379774,25.8821928245557,0.611776823391665,2.60001044478167,NaN,1,1,23.3999177096102,,,,
83,1,0,4525.jpg,25.9057225630527,26.5174960658492,27.2234156911413,0.611773502796495,0.705919625292154,NaN,1,1,,,,,
84,1,0,7496.jpg,27.2351431282241,27.8469169328928,30.2469291285338,0.611773804668701,2.40001219564101,NaN,1,1,,,,,
85,1,0,7496.jpg,30.2586930921657,30.8704681043237,31.9763513238158,0.611775012157977,1.10588321949217,1.09421223252957,1,1,,,,,
86,1,0,2850.jpg,31.9881167968088,32.599893016456,34.9057835412582,0.611776219647254,2.30589052480218,NaN,1,1,,,,,
87,1,0,4530.jpg,34.9175487123789,35.5293373087902,36.92932837337,0.611788596411316,1.39999106457981,NaN,1,1,,,,,
88,1,0,7237.jpg,36.9410917332571,37.5528718772443,39.1528723602401,0.611780143987289,1.60000048299571,NaN,1,1,,,,,
89,1,0,4000.jpg,39.1646610774005,39.7881885820425,40.9764690540137,0.62352750464197,1.18828047197121,NaN,1,1,,,,,
90,1,0,7130.jpg,40.9882345270071,41.6117197695266,42.7058402328767,0.623485242519564,1.09412046335001,NaN,1,1,,,,,
91,1,0,7180.jpg,42.7176105358262,43.329382227389,44.5293807784019,0.611771691562808,1.19999855101287,NaN,1,1,,,,,
92,1,0,7190.jpg,44.5411504776075,45.1529197541913,47.2588156523207,0.6117692765838,2.10589589812935,NaN,1,1,,,,,
93,1,0,4180.jpg,47.2705805215692,47.8823621749175,49.9882441869204,0.611781653348316,2.10588201200289,NaN,1,1,47.4118105727152,,,,
94,1,0,5535.jpg,50.000027772252,50.611781955221,52.411789441654,0.61175418296898,1.80000748643306,NaN,1,1,,,,,
95,1,0,4003.jpg,52.4235576314977,53.0353561896954,54.1412255230616,0.611798558197734,1.10586933336617,NaN,1,1,,,,,
96,1,0,9045.jpg,54.1647561671757,54.7765308774615,55.9765206741777,0.611774710285772,1.19998979671618,NaN,1,1,,,,,
97,1,0,7830.jpg,55.9882846378091,56.6000614612008,59.600075649199,0.611776823391665,3.0000141879982,NaN,1,1,,,,,
98,1,0,7820.jpg,-2.51832440344742,-1.90655301375728,1.09352547304161,0.611771389690148,3.00007848679888,NaN,1,1,61.0472285254837,,61.9766640635212,0.152551771854633,
99,1,0,6314.jpg,1.10523177906316,1.71700135751962,3.51707163339188,0.61176957845646,1.80007027587226,NaN,1,1,,,,,
100,1,0,4001.jpg,3.52880631541029,4.15230846277882,5.24643103923472,0.623502147368526,1.0941225764559,NaN,1,1,,,,,
101,1,0,4490.jpg,5.25820134218475,5.8699727318749,7.57586126431988,0.611771389690148,1.70588853244499,NaN,1,1,,,,,
102,1,0,4520.jpg,7.59941636009034,8.22295080779531,10.9170762822255,0.623534447704969,2.69412547443017,NaN,1,1,,,,,
103,1,0,2312.jpg,10.9288414533462,11.5406004662718,13.0464931645547,0.611759012925631,1.50589269828288,NaN,1,1,,,,,
104,1,0,4001.jpg,13.0582513926124,13.67003817779,15.7759195860485,0.611786785177628,2.10588140825848,NaN,1,1,,,,,
105,1,0,7237.jpg,15.7876841534248,16.3994869378344,19.1994841606092,0.61180278440952,2.79999722277489,NaN,1,1,,,,,
106,1,0,5535.jpg,19.2112366530937,19.8230276644836,20.7288957299861,0.611791011389869,0.905868065502546,NaN,1,1,,,,,
107,1,0,5535.jpg,20.7406602973624,21.3524334982862,23.4583266795648,0.611773200923835,2.10589318127859,1.2942252734133,1,1,,,,,
108,1,0,4525.jpg,23.4700936619192,24.0818741077787,26.987771756767,0.611780445859495,2.90589764898823,NaN,1,1,,,,,
109,1,0,7820.jpg,26.9995278717188,27.6113339767239,29.2113066874676,0.611806105005144,1.59997271074371,NaN,1,1,,,,,
110,1,0,7190.jpg,29.2230730660776,29.8348526063201,31.5407351013191,0.611779540242424,1.70588249499906,NaN,1,1,,,,,
111,1,0,7190.jpg,31.5524963480998,32.1642737752363,33.7642808994224,0.611777427136531,1.60000712418605,1.18834688387778,1,1,,,,,
112,1,0,4490.jpg,33.7760460705435,34.3878192714674,35.0937029739553,0.611773200923835,0.705883702487881,NaN,1,1,,,,,
113,1,0,7830.jpg,35.1054663338423,35.7172537227648,38.223135251772,0.611787388922494,2.50588152900718,NaN,1,1,35.1878925660626,,,,
114,1,0,4000.jpg,38.2349046491054,38.8466742275618,40.9525954829642,0.61176957845646,2.10592125540234,NaN,1,1,,,,,
115,1,0,7180.jpg,40.964344654853,41.5761060827572,43.7761158030453,0.611761427904185,2.20000972028811,NaN,1,1,,,,,
116,1,0,8116.jpg,43.7878861059953,44.3996587031747,47.1997003011779,0.611772597179424,2.80004159800319,NaN,1,1,,,,,
117,1,0,7130.jpg,47.2114491711945,47.8232178440339,48.9290950260802,0.611768672839389,1.10587718204624,NaN,1,1,,,,,
118,1,0,6314.jpg,48.940858084095,49.5526403411882,52.1526510878421,0.611782257093182,2.60001074665388,NaN,1,1,,,,,
119,1,0,2312.jpg,52.1644192776862,52.7761976104393,55.5762657732053,0.611778332753147,2.80006816276591,NaN,1,1,53.9998028773866,,,,
120,1,0,4520.jpg,55.5880155488385,56.2115158849733,58.9997536722012,0.623500336134839,2.7882377872279,NaN,1,1,,,,,
121,1,0,2850.jpg,59.0115294088528,59.6232920442462,62.3291890291152,0.611762635393461,2.70589698486901,NaN,1,1,,,,,
122,1,0,4003.jpg,-1.45916316771536,-0.847363100156144,1.15261093882555,0.611800067559216,1.99997403898169,NaN,1,1,,,63.6469410223026,0.152795080930446,
123,1,0,4180.jpg,1.16438275113705,1.77615353708279,4.28206434770345,0.611770785945737,2.50591081062066,NaN,1,1,,,,,
124,1,0,8050.jpg,4.29382861320755,4.90559970102549,6.70559481069404,0.611771087817942,1.79999510966854,NaN,1,1,,,,,
125,1,0,4530.jpg,6.72912575668033,7.34089865573242,8.84679195775925,0.611772899052085,1.50589330202683,NaN,1,1,,,,,
126,1,0,9045.jpg,8.85855561951894,9.47033606537798,10.2703251376006,0.61178044585904,0.799989072222616,NaN,1,1,,,,,
127,1,0,7496.jpg,10.2820993648907,10.8938650190071,13.7997674979524,0.611765654116425,2.90590247894534,NaN,1,1,,,,,
128,1,0,9045.jpg,13.8115290466058,14.4233140205492,17.4233176430171,0.611784973943486,3.00000362246783,1.17656510978031,0,1,,,,,
129,1,0,7830.jpg,17.4350828141378,18.0468702030603,20.7527508868252,0.611787388922494,2.70588068376492,NaN,1,1,,,,,
130,1,0,4520.jpg,20.7645184729245,21.3762965038054,22.8821889002156,0.611778030880942,1.50589239641022,NaN,1,1,,,,,
131,1,0,2850.jpg,22.8939456189119,23.5057429696203,25.2116115784929,0.611797350708457,1.70586860887261,NaN,1,1,,,,,
132,1,0,8050.jpg,25.2233734290185,25.8351475355594,28.5410973480816,0.611774106540906,2.70594981252225,NaN,1,1,,,,,
133,1,0,7237.jpg,28.5645760701595,29.1763462523609,30.882278858162,0.611770182201326,1.70593260580108,NaN,1,1,30.4352654468812,,,,
134,1,0,7820.jpg,30.8940062952447,31.5057843261256,33.01167460943,0.611778030880942,1.50589028330432,NaN,1,1,,,,,
135,1,0,2312.jpg,33.0234385730614,33.6352048309227,35.5410931218694,0.611766257861291,1.90588829094668,NaN,1,1,,,,,
136,1,0,4180.jpg,35.5528570855013,36.1646471912741,38.2705267882989,0.611790105772798,2.1058795970248,NaN,1,1,,,,,
137,1,0,7496.jpg,38.2822913556752,38.8940847820436,41.7999766954581,0.611793426368422,2.90589191341451,NaN,1,1,,,,,
138,1,0,6314.jpg,41.8235010002536,42.4352669562427,43.6352691297229,0.611765955989085,1.20000217348024,NaN,1,1,,,,,
139,1,0,4001.jpg,43.6470551300326,44.2588304440628,45.1646933777365,0.611775314030183,0.905862933673689,NaN,1,1,,,,,
140,1,0,4525.jpg,45.176461265708,45.7882329572708,47.6941215500901,0.611771691562808,1.90588859281934,NaN,1,1,,,,,
141,1,0,4530.jpg,47.7058903436782,48.3176762232392,49.8235496016946,0.611785879561012,1.50587337845536,NaN,1,1,,,,,
142,1,0,8116.jpg,49.8353174896661,50.4470891812284,53.1529870717145,0.611771691562353,2.70589789048609,NaN,1,1,,,,,
143,1,0,7190.jpg,53.1765225457857,53.7882881999021,55.6941900751026,0.611765654116425,1.90590187520047,NaN,1,1,,,,,
144,1,0,7190.jpg,55.705954038734,56.317729050892,57.6236373861598,0.611775012157977,1.30590833526776,1.18832363971069,1,1,,,,,
145,1,0,7130.jpg,57.635364823243,58.2471428541239,60.2471528159099,0.611778030880942,2.00000996178596,NaN,1,1,58.7295879231756,,,,
146,1,0,4000.jpg,-0.765351640479821,-0.153576628321844,1.24642379429952,0.611775012157977,1.40000042262136,NaN,1,1,,,60.717819129587,0.152878397685981,0.152651993458676
147,1,0,7180.jpg,1.26996168334881,1.88174031797416,4.68174357819498,0.611778634625352,2.80000326022082,NaN,1,1,,,,,
148,1,0,4003.jpg,4.6935135792728,5.30528496896295,7.50529438737885,0.611771389690148,2.2000094184159,NaN,1,1,,,,,
149,1,0,4490.jpg,7.51706378471226,8.12884241933762,11.1288481549113,0.611778634625352,3.00000573557372,NaN,1,1,,,,,
150,1,0,5535.jpg,11.1406172503721,11.7523871307008,12.4583046428866,0.611769880328666,0.705917512185806,NaN,1,1,,,,,
151,1,0,7190.jpg,12.4700468717124,13.0818089033614,14.7876974358064,0.61176203164905,1.70588853244499,NaN,1,1,,,,,
152,1,0,2850.jpg,14.7994671350116,15.4112481846155,17.4112557314234,0.611781049603906,2.00000754680786,NaN,1,1,,,,,
153,1,0,2312.jpg,17.4230215062885,18.0348179513799,19.0347868585327,0.611796445091386,0.999968907152834,NaN,1,1,,,,,
154,1,0,9045.jpg,19.046554444632,19.6583400223208,21.8583403845673,0.611785577688806,2.20000036224656,NaN,1,1,,,,,
155,1,0,7130.jpg,21.8701019332207,22.4819300749036,24.7877801488171,0.611828141682963,2.30585007391346,NaN,1,1,,,,,
156,1,0,7130.jpg,24.7995462255549,25.4113293882651,26.1172052420729,0.611783162710253,0.705875853807811,1.2000885089592,1,1,,,,,
157,1,0,4180.jpg,26.128954715834,26.7407478403302,27.5407354031913,0.611793124496216,0.799987562861133,NaN,1,1,,,,,
158,1,0,8050.jpg,27.5524984612061,28.1642816239159,31.0701684055016,0.611783162709798,2.90588678158565,NaN,1,1,,,,,
159,1,0,8050.jpg,31.0819356897287,31.6937067775466,34.4937269426164,0.611771087817942,2.80002016506978,1.0353957349671,1,1,,,,,
160,1,0,7820.jpg,34.5055011699064,35.1172598809599,36.0231424363328,0.611758711053426,0.905882555372955,NaN,1,1,,,,,
161,1,0,7496.jpg,36.0349121355384,36.6466934870145,38.9525761631367,0.611781351476111,2.30588267612211,NaN,1,1,,,,,
162,1,0,4001.jpg,38.9643437492359,39.5761281194355,41.1761210556233,0.61178437019953,1.59999293618785,NaN,1,1,,,,,
163,1,0,7237.jpg,41.1996486810144,41.8114387867872,44.1173335378016,0.611790105772798,2.30589475101442,NaN,1,1,,,,,
164,1,0,4003.jpg,44.1290944827101,44.7408685892515,47.7408707023574,0.611774106541361,3.00000211310589,NaN,1,1,,,,,
165,1,0,7180.jpg,47.7526570045393,48.3644163193376,50.3644561664814,0.611759314798292,2.00003984714385,NaN,1,1,,,,,
166,1,0,4490.jpg,50.3761917541169,50.9879725018482,53.1879701472444,0.611780747731245,2.19999764539625,NaN,1,1,,,,,
167,1,0,6314.jpg,53.2115010932307,53.8232755016438,55.8232845578132,0.611774408413112,2.00000905616935,NaN,1,1,,,,,
168,1,0,4530.jpg,55.8350642188043,56.4468467777697,59.4468700219372,0.611782558965388,3.00002324416755,NaN,1,1,,,,,
169,1,0,8116.jpg,59.4586330799521,60.082142774128,62.2704283779285,0.623509694175937,2.18828560380052,NaN,1,1,,,,,
170,1,0,4520.jpg,62.2821709086265,62.8939290159356,63.7998088544582,0.611758107309015,0.905879838522651,NaN,1,1,,,,,
171,1,0,4525.jpg,63.8115815723863,64.4233753006274,65.1292731911135,0.611793728241082,0.705897890486085,NaN,1,1,,,,,
172,1,0,7830.jpg,65.1410232686189,65.7645359815183,67.6586729874703,0.623512712899355,1.89413700595196,NaN,1,1,,,,,
173,1,0,5535.jpg,67.6821939716706,68.2939656632334,70.2939753231467,0.611771691562808,2.0000096599133,NaN,1,1,,,,,
174,1,0,4000.jpg,70.3057413998845,70.9175221476162,72.6234070575933,0.6117807477317,1.70588490997716,NaN,1,1,,,,,
175,1,0,4530.jpg,72.6351670968852,73.2469502595955,73.9528236984247,0.611783162710253,0.705873438829258,NaN,1,1,,,,,
176,1,0,7830.jpg,73.9645879639288,74.5763753528513,75.282244867341,0.611787388922494,0.705869514489677,NaN,1,1,,,,,
177,1,0,2312.jpg,75.2940145665461,75.9057965217671,77.1057863184833,0.611781955220977,1.19998979671618,NaN,1,1,,,,,
178,1,0,7496.jpg,77.1175523952211,77.7293301242298,79.0352167246915,0.611777729008736,1.30588660046169,NaN,1,1,,,,,
179,1,0,7496.jpg,-3.09442595812016,-2.4826147212857,0.317368615363193,0.611811236834455,2.79998333664889,1.24715492901623,1,1,81.5176741705077,,82.1411989582994,,
180,1,0,7237.jpg,0.329140427674702,0.940914534215608,2.54090807414832,0.611774106540906,1.59999353993271,NaN,1,1,,,,,
181,1,0,7820.jpg,2.55267807522614,3.1644476536826,5.16445640797929,0.61176957845646,2.00000875429669,NaN,1,1,,,,,
182,1,0,4490.jpg,5.17626414309461,5.79975874365573,8.38800733791186,0.623494600561116,2.58824859425613,NaN,1,1,,,,,
183,1,0,4000.jpg,8.39976949030961,9.01154721931835,10.6115519285263,0.611777729008736,1.60000470920795,NaN,1,1,,,,,
184,1,0,8050.jpg,10.6350789501726,11.2468747915195,12.6468863834157,0.611795841346975,1.40001159189615,NaN,1,1,,,,,
185,1,0,4180.jpg,12.6586521582813,13.2821651730528,15.070407186493,0.623513014771561,1.78824201344014,NaN,1,1,,,,,
186,1,0,8116.jpg,15.0821720557415,15.6939467660268,17.493959988034,0.611774710285317,1.80001322200724,NaN,1,1,,,,,
187,1,0,6314.jpg,17.5057191217088,18.1174932282497,20.6234360373342,0.611774106540906,2.50594280908444,NaN,1,1,,,,,
188,1,0,7130.jpg,20.64695249345,21.2587226756514,23.5645863338182,0.611770182201326,2.3058636581668,NaN,1,1,,,,,
189,1,0,7190.jpg,23.5763542217896,24.1881247058632,25.4940345504924,0.611770484073531,1.30590984462924,NaN,1,1,,,,,
190,1,0,4003.jpg,25.5175956837093,26.1410794168673,28.635209962752,0.623483733158082,2.49413054588467,NaN,1,1,26.1529490358048,,,,
191,1,0,2850.jpg,28.6469781525957,29.2587492404136,31.0587552174852,0.611771087817942,1.80000597707158,NaN,1,1,,,,,
192,1,0,4520.jpg,31.0705360859661,31.6822954007644,32.4823128489834,0.611759314798292,0.800017448219023,NaN,1,1,,,,,
193,1,0,5535.jpg,32.4940620208722,33.1058340143068,35.8117424703237,0.611771993434559,2.70590845601691,NaN,1,1,,,,,
194,1,0,4525.jpg,35.8235061320829,36.4352693712212,37.9411566358021,0.611763239138327,1.50588726458091,NaN,1,1,,,,,
195,1,0,7180.jpg,37.9646863742992,38.5764704426265,41.3764767215703,0.611784068327324,2.80000627894378,NaN,1,1,,,,,
196,1,0,4001.jpg,41.3882440057973,42.0000117730197,44.8000271081328,0.611767767222318,2.80001533511313,NaN,1,1,,,,,
197,1,0,9045.jpg,44.8235595634806,45.4353336700215,48.0353893956485,0.611774106540906,2.60005572562704,NaN,1,1,,,,,
198,1,0,4525.jpg,48.0471237757947,48.6588975804634,51.2588995728206,0.611773804668701,2.60000199235719,NaN,1,1,,,,,
199,1,0,5535.jpg,51.270663536452,51.8824373411207,54.2824495367618,0.611773804668701,2.40001219564101,NaN,1,1,52.0119456907578,,,,
200,1,0,5535.jpg,54.2942144060103,54.9060017949328,56.9059969649761,0.611787388922494,1.99999517004335,1.38833275625439,1,1,,,,,
201,1,0,8116.jpg,56.9177847765195,57.5413143942674,60.1295512155039,0.623529617747863,2.58823682123648,NaN,1,1,,,,,
202,1,0,7190.jpg,-1.35324945912043,-0.741468107643868,1.45852712277383,0.611781351476566,2.1999952304177,NaN,1,1,,,61.3414133480082,0.1527416495328,
203,1,0,7237.jpg,1.48205686127085,2.09384545768216,3.69384443131639,0.611788596411316,1.59999897363423,NaN,1,1,,,,,
204,1,0,7496.jpg,3.70560597996973,4.31737857714916,7.11739270477301,0.611772597179424,2.80001412762385,NaN,1,1,,,,,
205,1,0,4530.jpg,7.12916240397817,7.7409325861795,10.64683446138,0.611770182201326,2.90590187520047,NaN,1,1,,,,,
206,1,0,2312.jpg,10.6586234804126,11.2821464569702,12.176253275692,0.623522976557524,0.894106818721866,NaN,1,1,,,,,
207,1,0,4001.jpg,12.1880172393235,12.7998037226289,13.9997941230899,0.611786483305423,1.19999040046105,NaN,1,1,,,,,
208,1,0,6314.jpg,14.0233317102666,14.6351103448924,15.941037698115,0.611778634625807,1.30592735322261,NaN,1,1,,,,,
209,1,0,4180.jpg,15.9527639277089,16.5645274687195,18.9645363437648,0.611763541010532,2.40000887504539,NaN,1,1,,,,,
210,1,0,7130.jpg,18.9763126841613,19.5880789420221,21.7880838323536,0.611766257860836,2.20000489033146,NaN,1,1,,,,,
211,1,0,7830.jpg,21.7998634933447,22.4116249212493,25.0116368753925,0.611761427904639,2.60001195414316,NaN,1,1,,,,,
212,1,0,4003.jpg,25.0351648026558,25.6469527953227,27.5528308226112,0.611787992666905,1.90587802728851,NaN,1,1,,,,,
213,1,0,7820.jpg,27.5763647873205,28.1881334601599,30.0940268829363,0.611768672839389,1.90589342277644,NaN,1,1,,,,,
214,1,0,4490.jpg,30.1057905446955,30.7175652549809,32.4234546930429,0.611774710285317,1.70588943806206,NaN,1,1,,,,,
215,1,0,9045.jpg,32.4352183548021,33.0470087624476,35.047002423129,0.611790407645458,1.99999366068141,NaN,1,1,,,,,
216,1,0,4520.jpg,35.0587709148454,35.6705537756829,36.4705516022022,0.611782860837593,0.799997826519302,NaN,1,1,,,,,
217,1,0,4520.jpg,36.4823119433663,37.0940851442906,37.999983095151,0.61177320092429,0.905897950860435,1.15303023945444,1,1,,,,,
218,1,0,8050.jpg,38.0235049849684,38.6352673184897,41.235282593228,0.611762333521256,2.60001527473833,NaN,1,1,38.705942567587,38.8588786228829,,,
219,1,0,4000.jpg,41.2588141429587,41.8705864382659,43.3764727972302,0.611772295307219,1.50588635896429,NaN,1,1,,,,,
220,1,0,7180.jpg,43.3999995170043,44.0117787553745,45.8118025429121,0.611779238370218,1.80002378753761,NaN,1,1,,,,,
221,1,0,2850.jpg,45.823554129779,46.4353231044911,48.2353296853071,0.611768974712049,1.80000658081599,NaN,1,1,,,,,
222,1,0,7496.jpg,48.2470945545556,48.8588683592243,50.3647565294227,0.611773804668701,1.50588817019843,NaN,1,1,,,,,
223,1,0,4180.jpg,50.3765217005434,50.9883009389137,53.9883139194226,0.611779238370218,3.00001298050893,NaN,1,1,,,,,
224,1,0,7130.jpg,54.0000781849262,54.6118504802334,55.7177361147042,0.611772295307219,1.10588563447072,NaN,1,1,,,,,
225,1,0,7130.jpg,55.729502191442,56.3412868635137,57.7412806449443,0.611784672071735,1.39999378143057,1.02363328069714,1,1,,,,,
226,1,0,4530.jpg,57.7530440048313,58.3648304881367,60.164828314656,0.611786483305423,1.7999978265193,NaN,1,1,59.9649103635479,,,,
227,1,0,9045.jpg,-1.16499283506073,-0.553221747242787,1.44680210066917,0.611771087817942,2.00002384791196,NaN,1,1,,,61.1884465017379,0.152823456926853,
228,1,0,4000.jpg,1.45856696991768,2.07032809594966,3.67034488004992,0.611761126031979,1.60001678410026,NaN,1,1,,,,,
229,1,0,4520.jpg,3.68209797627833,4.29388415771155,7.29388778017938,0.611786181433217,3.00000362246783,NaN,1,1,,,,,
230,1,0,4520.jpg,7.30566502619195,7.91743671775475,9.22331396017535,0.611771691562808,1.30587724242059,0.800082350764114,1,1,,,,,
231,1,0,7180.jpg,9.23507822567944,9.8468547471989,10.5527342234745,0.611776521519459,0.705879476275641,NaN,1,1,,,,,
232,1,0,4490.jpg,10.5644960740001,11.1762735011362,13.6821755574601,0.611777427136076,2.50590205632398,NaN,1,1,,,,,
233,1,0,4490.jpg,13.6939328799012,14.3057190613345,15.211591051177,0.611786181433217,0.905871989842581,1.14127080390699,1,1,,,,,
234,1,0,7820.jpg,15.2233556185533,15.8351327438172,17.2351594293286,0.61177712526387,1.40002668551142,NaN,1,1,,,,,
235,1,0,7820.jpg,17.2469019600267,17.8586845189925,18.6586732893425,0.611782558965842,0.799988770349955,1.10597861114002,1,1,,,,,
236,1,0,8116.jpg,18.6704429885481,19.2822122651323,22.0822288077343,0.611769276584255,2.80001654260195,NaN,1,1,21.105836731158,,,,
237,1,0,4003.jpg,22.0939963938336,22.7057662741622,25.0116583083259,0.611769880328666,2.30589203416366,NaN,1,1,,,,,
238,1,0,7830.jpg,25.0234268000422,25.6352241507502,28.1410923973763,0.611797350708002,2.50586824662605,NaN,1,1,,,,,
239,1,0,2850.jpg,28.1528581722418,28.764633486272,30.7646413349521,0.611775314030183,2.00000784868007,NaN,1,1,,,,,
240,1,0,7190.jpg,30.7764089210514,31.3881803107415,32.2940631679871,0.611771389690148,0.905882857245615,NaN,1,1,,,,,
241,1,0,6314.jpg,32.3058310559586,32.9176015400317,34.8234961702974,0.611770484073077,1.90589463026572,NaN,1,1,,,,,
242,1,0,4001.jpg,34.8470452286215,35.4705769594761,37.0588023095647,0.623531730854666,1.58822535008858,NaN,1,1,,,,,
243,1,0,7237.jpg,37.0705711031533,37.682341889099,39.6823521527572,0.611770785945737,2.00001026365817,NaN,1,1,,,,,
244,1,0,4525.jpg,39.6941194369842,40.3058896191851,42.8118348432486,0.611770182200871,2.50594522406345,NaN,1,1,,,,,
245,1,0,2312.jpg,42.8235529222902,43.4353234063633,44.5412081352174,0.611770484073077,1.10588472885411,NaN,1,1,,,,,
246,1,0,8050.jpg,44.5647393830759,45.1765095652768,47.776536311163,0.611770182200871,2.60002674588623,NaN,1,1,,,,,
247,1,0,8050.jpg,47.788298765433,48.4000656270387,51.0000881467126,0.611766861605702,2.60002251967398,1.30597021908989,1,1,,,,,
248,1,0,5535.jpg,51.0236097346574,51.6353922936228,53.8353893352742,0.611782558965388,2.19999704165139,NaN,1,1,,,,,
249,1,0,7190.jpg,53.8471677887765,54.4589428009344,57.3648268656693,0.611775012157977,2.90588406473489,NaN,1,1,,,,,
250,1,0,8050.jpg,57.3766457700599,58.000143389344,59.0001325219409,0.62349761928408,0.999989132596966,1.35297988715411,0,1,,,,,
251,1,0,4001.jpg,59.011896787445,59.6236724033474,60.6236757239426,0.611775615902388,1.00000332059517,NaN,1,1,,,,,
252,1,0,4000.jpg,60.6472124055026,61.2589762483854,63.764881625305,0.611763842882738,2.5059053769196,NaN,1,1,,,,,
253,1,0,4530.jpg,-2.14179545796878,-1.53003735065977,0.669982935158714,0.611758107309015,2.20002028581848,NaN,1,1,65.1649659684263,,65.7767403768394,0.152789647228929,
254,1,0,7180.jpg,0.681759275554668,1.30527530904919,2.29353247647896,0.623516033494525,0.988257167429765,NaN,1,1,,,,,
255,1,0,7830.jpg,2.30527681841113,2.91704971746276,4.91708111218213,0.61177289905163,2.00003139471937,NaN,1,1,,,,,
256,1,0,7830.jpg,4.92883632151688,5.54059624005959,6.54060771120749,0.611759918542703,1.0000114711479,NaN,0,1,,,,,
257,1,0,4003.jpg,6.5523937115172,7.16414246078466,9.07002924236986,0.611748749267463,1.9058867815852,0.0235792455546289,0,1,,,,,
258,1,0,5535.jpg,9.08181312957367,9.69357606683934,12.2935804741751,0.611762937265667,2.60000440733575,NaN,1,1,,,,,
259,1,0,4180.jpg,12.3053489658914,12.917131826729,15.8230189101869,0.611782860837593,2.90588708345786,NaN,1,1,,,,,
260,1,0,4520.jpg,15.8347867981583,16.4465820357605,17.5524420110855,0.611795237602109,1.10585997532507,NaN,1,1,,,,,
261,1,0,9045.jpg,17.5642095971848,18.1759978917239,19.9759890770529,0.61178829453911,1.79999118532896,NaN,1,1,,,,,
262,1,0,4525.jpg,19.9877530406843,20.5995600513061,23.3995409729769,0.61180701062176,2.79998092167079,NaN,1,1,,,,,
263,1,0,7130.jpg,23.423071617091,24.0348454217597,26.740740595395,0.611773804668701,2.70589517363533,NaN,1,1,,,,,
264,1,0,7820.jpg,26.7525084833665,27.3642904385874,30.3642952685441,0.611781955220977,3.00000482995665,NaN,1,1,,,,,
265,1,0,2850.jpg,30.3760643640048,30.9878411873965,33.4937305650838,0.611776823391665,2.50588937768725,NaN,1,1,30.4349617633447,30.5878917811947,,,
266,1,0,8116.jpg,33.5172690578779,34.1290319951436,36.6349274102768,0.611762937265667,2.50589541513318,NaN,1,1,,,,,
267,1,0,6314.jpg,36.6467318247969,37.2702439339514,38.9643621634464,0.62351210915449,1.69411822949496,NaN,1,1,,,,,
268,1,0,7237.jpg,38.9761246177163,39.5878960074069,40.7878984827598,0.611771389690603,1.2000024753529,NaN,1,1,,,,,
269,1,0,2312.jpg,40.7996660688591,41.4114468165908,43.0114645063077,0.6117807477317,1.60001768971688,NaN,1,1,,,,,
270,1,0,4490.jpg,43.0349749249772,43.6467423903277,44.3526276021771,0.611767465350567,0.705885211849363,NaN,1,1,,,,,
271,1,0,7496.jpg,44.3644314129529,44.9879398996395,47.3761793773524,0.62350848668666,2.38823947771289,NaN,1,1,,,,,
272,1,0,7496.jpg,47.387943642856,47.9997183531418,50.1997274696855,0.611774710285772,2.2000091165437,1.09421072316854,1,1,,,,,
273,1,0,4180.jpg,50.2115016969751,50.8232806334731,51.8232890858976,0.611778936498013,1.00000845242448,NaN,1,1,50.3174504227572,,,,
274,1,0,8050.jpg,51.835063011315,52.4468036100307,53.9527083832054,0.611740598715642,1.50590477317473,NaN,1,1,,,,,
275,1,0,5535.jpg,53.9644663093909,54.5762355859752,57.2821416270135,0.611769276584255,2.70590604103836,NaN,1,1,,,,,
276,1,0,5535.jpg,57.2938953269868,57.9056694335277,59.8115622525593,0.611774106540906,1.90589281903158,0.976587689828648,1,1,,,,,
277,1,0,4490.jpg,-1.04737221669984,-0.435607770072238,0.776158367039898,0.611764446627603,1.21176613711214,NaN,1,1,60.2587160344606,,60.7175398977074,0.152842474881709,
278,1,0,8116.jpg,0.787920217565443,1.39969492785076,3.70558907512077,0.611774710285317,2.30589414727001,NaN,1,1,,,,,
279,1,0,7130.jpg,3.7173829241101,4.34090620253983,6.3291358995898,0.62352327842973,1.98822969704997,NaN,1,1,,,,,
280,1,0,7820.jpg,6.34090288194466,6.9526881577608,7.65855737037828,0.611785275816146,0.705869212617472,NaN,1,1,,,,,
281,1,0,4530.jpg,7.6820874107475,8.29387329030851,10.1997522232141,0.611785879561012,1.90587893290558,NaN,1,1,,,,,
282,1,0,7830.jpg,10.2115530152664,10.8350545588905,13.8233189712555,0.623501543624116,2.98826441236497,NaN,1,1,,,,,
283,1,0,7180.jpg,13.8468369367324,14.4586279481227,16.76451394484,0.611791011390324,2.30588599671728,NaN,1,1,,,,,
284,1,0,4525.jpg,16.7762721728977,17.3880550337358,18.5880457360686,0.611782860838048,1.1999907023328,NaN,1,1,,,,,
285,1,0,4000.jpg,18.6115806063949,19.2233643728496,21.3292406492787,0.611783766454664,2.10587627642917,NaN,1,1,18.6704937030945,18.8234315696241,,,
286,1,0,4003.jpg,21.3527755196051,21.9645538523582,23.9645541542309,0.611778332753147,2.00000030187266,NaN,1,1,,,,,
287,1,0,7190.jpg,23.9763217403302,24.5881046011677,25.2939744175296,0.611782860837593,0.705869816361883,NaN,1,1,,,,,
288,1,0,6314.jpg,25.3057344568215,25.9175133933195,28.2234069368442,0.611778936498013,2.30589354352469,NaN,1,1,,,,,
289,1,0,6314.jpg,28.235180862262,28.8469610062489,29.952854187527,0.611780143986834,1.10589318127813,0.988345616014158,1,1,,,,,
290,1,0,2850.jpg,29.9646006425655,30.5763653910649,32.976392378449,0.611764748499354,2.40002698738408,NaN,1,1,,,,,
291,1,0,2312.jpg,32.9881753600353,33.6116980347206,34.9999353993271,0.623522674685319,1.38823736460654,NaN,1,1,33.811772959426,33.9647238064649,,,
292,1,0,4520.jpg,35.0117171734246,35.6234641114584,36.7293485384398,0.611746938033775,1.10588442698145,NaN,1,1,,,,,
293,1,0,7237.jpg,36.7528885405955,37.3646566096904,39.3646593265407,0.611768069094978,2.0000027168503,NaN,1,1,,,,,
294,1,0,4001.jpg,39.3881993286964,39.9999655865572,41.7058640807882,0.611766257860836,1.70589849423095,NaN,1,1,,,,,
295,1,0,7496.jpg,41.7176235163352,42.329395207898,44.3294030565776,0.611771691562808,2.00000784867962,NaN,1,1,,,,,
296,1,0,9045.jpg,44.3411709445495,44.9529489754304,47.9529580315993,0.611778030880942,3.00000905616889,NaN,1,1,,,,,
297,1,0,2312.jpg,47.9647216933586,48.5765130066211,51.1765062446812,0.611791313262529,2.59999323806005,NaN,1,1,48.9648258393031,,,,
298,1,0,4000.jpg,51.1882780569927,51.8000494466833,52.7059313983118,0.611771389690603,0.905881951628544,NaN,1,1,,,,,
299,1,0,7820.jpg,52.7176962675603,53.3294966369917,55.3294785246535,0.611800369431421,1.99998188766176,NaN,1,1,,,,,
300,1,0,7820.jpg,55.3412442995186,55.9530265566118,56.658901504803,0.611782257093182,0.705874948191195,1.12950925525411,1,1,,,,,
301,1,0,9045.jpg,56.6706645628178,57.2824492348896,60.0824703055764,0.611784672071735,2.80002107068685,NaN,1,1,,,,,
302,1,0,4001.jpg,-2.3418383842104,-1.7300645795417,0.669946408610031,0.611773804668701,2.40001098815173,NaN,1,1,61.3649020318721,61.5178565013784,62.2825542864507,0.152492604883264,
303,1,0,6314.jpg,0.681718522793744,1.29348387503796,1.99943398943242,0.61176535224422,0.705950114394454,NaN,1,1,,,,,
304,1,0,4520.jpg,2.01115629468632,2.63466840384081,4.62291410012313,0.62351210915449,1.98824569628232,NaN,1,1,,,,,
305,1,0,4520.jpg,4.63467715813795,5.24646696203854,6.95235640010014,0.611789803900592,1.7058894380616,1.03541324356047,1,1,,,,,
306,1,0,7190.jpg,6.96410708135045,7.57590594142039,9.17588589709931,0.611798860069939,1.59997995567892,NaN,1,1,,,,,
307,1,0,7130.jpg,9.19944431346539,9.82295612074768,12.5170867270067,0.623511807282284,2.69413060625902,NaN,1,1,,,,,
308,1,0,4490.jpg,12.528855218723,13.1406329477318,15.1406389851777,0.611777729008736,2.00000603744593,NaN,1,1,,,,,
309,1,0,4530.jpg,15.1524141180844,15.764178564712,18.1641847229066,0.611764446627603,2.40000615819463,NaN,1,1,15.6230448108299,,,,
310,1,0,7830.jpg,18.1759547239844,18.7877406035454,19.6936298001092,0.611785879561012,0.905889196563749,NaN,1,1,,,,,
311,1,0,7496.jpg,19.7053771607639,20.3171714927494,22.3171542860282,0.611794331985493,1.99998279327883,NaN,1,1,,,,,
312,1,0,8050.jpg,22.3289245889782,22.9406920543283,25.3407274941369,0.611767465350113,2.40003543980856,NaN,1,1,,,,,
313,1,0,8116.jpg,25.3525017214265,25.9760147361981,27.5642509536901,0.623513014771561,1.58823621749207,NaN,1,1,,,,,
314,1,0,7180.jpg,27.5877846165272,28.1995551006003,31.1995689867263,0.611770484073077,3.000013886126,NaN,1,1,,,,,
315,1,0,4180.jpg,31.2113404971656,31.8231215467695,33.0231354932698,0.611781049603906,1.20001394650035,NaN,1,1,,,,,
316,1,0,2850.jpg,33.0348894951153,33.6584230372036,36.0466703635961,0.623533542088353,2.3882473263925,NaN,1,1,,,,,
317,1,0,5535.jpg,36.0701955740087,36.6819938303338,38.7878586356155,0.611798256325073,2.10586480528173,NaN,1,1,36.4820384470599,36.6349675592928,,,
318,1,0,4003.jpg,38.799640409713,39.4113988188942,40.411416327488,0.61175840918122,1.00001750859383,NaN,1,1,,,,,
319,1,0,7237.jpg,40.4231796873751,41.0349637557019,42.7408323645745,0.61178406832687,1.70586860887261,NaN,1,1,,,,,
320,1,0,4525.jpg,42.7526370809674,43.3761440582925,44.9643715214875,0.623506977325178,1.58822746319493,NaN,1,1,,,,,
321,1,0,2312.jpg,44.9761677854558,45.5879111010217,47.8938061539084,0.611743315565946,2.30589505288663,NaN,1,1,,,,,
322,1,0,8050.jpg,47.9055713250291,48.5173442240807,49.9173579290837,0.61177289905163,1.40001370500295,NaN,1,1,,,,,
323,1,0,4530.jpg,49.9291143459077,50.5409065647868,51.3408983538602,0.611792218879145,0.799991789073374,1.38835932101665,0,1,,,,,
324,1,0,4003.jpg,51.3526592987687,51.9644261603744,53.1644440312148,0.611766861605702,1.20001787084038,NaN,1,1,52.3880511093957,,,,
325,1,0,7130.jpg,53.1762312390138,53.7997584417835,55.6938595249312,0.623527202769765,1.89410108314769,NaN,1,1,,,,,
326,1,0,4001.jpg,55.7056705806422,56.3291651812033,58.0232915612501,0.623494600561116,1.69412638004678,NaN,1,1,,,,,
327,1,0,5535.jpg,58.0350666941572,58.6468516681011,61.6468580074193,0.611784973943941,3.00000633931813,NaN,1,1,58.9645837377161,,,,
328,1,0,7820.jpg,-0.965035640553651,-0.353266967713807,1.24674166583372,0.611768672839844,1.60000863354753,NaN,1,1,,,62.4822500595442,0.15283583369137,
329,1,0,4000.jpg,1.25853430733423,1.88204611461651,4.17617358140387,0.623511807282284,2.29412746678736,NaN,1,1,,,,,
330,1,0,7830.jpg,4.18793875252459,4.79972644331929,6.59973694847531,0.611787690794699,1.80001050515602,NaN,1,1,,,,,
331,1,0,2850.jpg,6.61148370538604,7.22326203813918,9.52915286481357,0.611778332753147,2.30589082667439,NaN,1,1,,,,,
332,1,0,4520.jpg,9.54093252580469,10.1526912368581,11.6585781995673,0.611758711053426,1.50588696270916,NaN,1,1,,,,,
333,1,0,7496.jpg,11.6821046174687,12.293895628859,13.4939246689742,0.611791011390324,1.20002904011517,NaN,1,1,,,,,
334,1,0,7190.jpg,13.5056548229081,14.1174231938753,16.8233289330415,0.611768370967184,2.70590573916616,NaN,1,1,,,,,
335,1,0,4490.jpg,16.8468562565599,17.4586312687179,19.8586491999326,0.611775012157977,2.40001793121473,NaN,1,1,,,,,
336,1,0,7180.jpg,19.8821750140896,20.4939515356091,22.3998301666425,0.611776521519459,1.90587863103337,NaN,1,1,,,,,
337,1,0,9045.jpg,22.4116022808262,23.0233818210686,25.9292686026542,0.611779540242424,2.90588678158565,NaN,1,1,,,,,
338,1,0,4525.jpg,25.9410301513076,26.5528087859329,29.0586999748539,0.611778634625352,2.50589118892094,NaN,1,1,,,,,
339,1,0,8116.jpg,29.0822330339465,29.6940294790379,30.6940161966563,0.611796445091386,0.999986717618413,NaN,1,1,30.6117644466271,,,,
340,1,0,6314.jpg,30.7057771415653,31.3175569836799,32.4234296376417,0.611779842114629,1.1058726539618,NaN,1,1,,,,,
341,1,0,7237.jpg,32.4469696397969,33.0587576324638,35.0587467650607,0.611787992666905,1.99998913259697,NaN,1,1,,,,,
342,1,0,7237.jpg,35.0705083137141,35.6822929857858,36.4116934462618,0.611784672071735,0.729400460475972,1.21187330177963,1,1,,,,,
343,1,0,4180.jpg,36.4352262034818,37.0705258223074,38.1531573276934,0.635299618825684,1.08263150538596,NaN,1,1,,,,,
344,1,0,9045.jpg,38.1648908022225,38.788187072681,39.4823104340048,0.623296270458468,0.694123361323818,NaN,1,1,,,,,
345,1,0,9045.jpg,39.4940680583181,40.1058436742205,40.906104733388,0.611775615902388,0.800261059167497,1.09445644722246,1,1,,,,,
346,1,0,7237.jpg,40.9178813756562,41.5411719105405,44.3411827175692,0.623290534884291,2.80001080702868,NaN,1,1,,,,,
347,1,0,7496.jpg,44.3529309838409,44.9647280326772,46.8705891551167,0.611797048836252,1.90586112243955,NaN,1,1,,,,,
348,1,0,7130.jpg,46.894127044166,47.5411924378573,50.3647420395519,0.647065393691264,2.82354960169459,NaN,1,1,,,,,
349,1,0,7130.jpg,50.37649634327,50.9882776947461,53.6473693790999,0.611781351476111,2.65909168435383,0.917818888089187,1,1,,,,,
350,1,0,5535.jpg,53.6591091929472,54.270891751913,56.7765468766934,0.611782558965842,2.50565512478033,NaN,1,1,,,,,
351,1,0,2312.jpg,56.7883096328355,57.4000933992902,59.9059755320422,0.611783766454664,2.50588213275205,NaN,1,1,57.8119429135327,,,,
352,1,0,7180.jpg,-1.32969496709438,-0.706184065428715,0.0820534199265239,0.623510901665668,0.788237485355239,NaN,1,1,,,61.0943281514938,0.152783006038135,
353,1,0,2850.jpg,0.0938164779413455,0.705605376225321,3.30583950838309,0.611788898283976,2.60023413215777,NaN,1,1,,,,,
354,1,0,2850.jpg,3.31762611243721,3.92938814408626,6.58822293511048,0.61176203164905,2.65883479102422,NaN,0,1,,,,,
355,1,0,2850.jpg,6.60000108674058,7.21153067671639,8.10587718204624,0.611529589975817,0.89434650532985,1.29435839909866,1,1,,,,,
356,1,0,8116.jpg,8.11766137112227,8.7294387982588,11.2353324021583,0.611777427136531,2.50589360389949,NaN,1,1,,,,,
357,1,0,4530.jpg,11.258860933166,12.0118273568155,13.5647774189861,0.752966423649468,1.55295006217057,NaN,1,1,,,,,
358,1,0,4490.jpg,13.5765042523244,14.1880359554066,15.8471255266541,0.611531703082164,1.65908957124748,NaN,1,1,,,,,
359,1,0,4490.jpg,15.8588677554799,16.4706581631253,19.1648086929567,0.611790407645458,2.6941505298314,1.11782438216551,1,1,18.2590354153567,,,,
360,1,0,6314.jpg,19.1765424693581,19.8942471893429,21.8942067384542,0.717704719984795,1.99995954911128,NaN,1,1,,,,,
361,1,0,6314.jpg,21.9059894181682,22.5177749958566,25.4236647961652,0.611785577688352,2.90588980030861,1.28253164602847,1,1,,,,,
362,1,0,7830.jpg,25.4589406878285,26.0707153981139,28.1766055606695,0.611774710285317,2.10589016255562,NaN,1,1,,,,,
363,1,0,7830.jpg,28.1883897497455,28.8942885458482,31.5060472569021,0.705898796102701,2.61175871105388,1.20016216580007,1,1,,,,,
364,1,0,7190.jpg,31.529572165442,32.1413426495155,33.4472292499777,0.611770484073531,1.30588660046215,NaN,1,1,,,,,
365,1,0,8050.jpg,33.6001773801654,34.2119578260244,36.4001999602133,0.61178044585904,2.18824213418884,NaN,1,1,35.8591445723814,,,,
366,1,0,4003.jpg,36.4119974316709,37.0355101445703,39.2002297851968,0.623512712899355,2.16471964062657,NaN,1,1,,,,,
367,1,0,7820.jpg,39.2237821641165,39.8943969180045,41.164930045622,0.670614753888003,1.27053312761745,NaN,1,1,,,,,
368,1,0,4525.jpg,41.1767211777615,41.8944032573236,44.8238007594509,0.71768207956211,2.92939750212736,NaN,1,1,,,,,
369,1,0,4520.jpg,44.8355451013822,45.4473210191572,46.6588456584277,0.611775917775049,1.21152463927046,NaN,1,1,,,,,
370,1,0,4000.jpg,46.6823799250087,47.2941715401439,50.0000464883351,0.611791615135189,2.70587494819119,NaN,1,1,,,,,
371,1,0,4001.jpg,50.0236097346578,50.6471399561506,52.5412513029569,0.623530221492729,1.89411134680631,NaN,1,1,,,,,
372,1,0,4180.jpg,52.5530203984172,53.1647797132155,55.3647897353758,0.611759314798292,2.20001002216031,NaN,1,1,,,,,
373,1,0,2312.jpg,55.3765543027521,55.988382444435,57.3883490573589,0.611828141682963,1.39996661292389,NaN,1,1,,,,,
374,1,0,4520.jpg,57.4001081910337,58.011872033916,60.2118823579485,0.611763842882283,2.20001032403252,NaN,1,1,58.5296268043285,58.6825462566476,,,
375,1,0,4000.jpg,-1.67235655707464,-0.989956104748671,1.55144341750838,0.682400452325965,2.54139952225705,NaN,1,1,,,61.6238272638384,0.270448603372643,
376,1,0,4000.jpg,1.5632043624164,2.17503099473834,4.08062496019011,0.611826632321936,1.90559396545177,NaN,0,1,,,,,
377,1,0,4180.jpg,4.0923846976093,4.70416453972393,6.10417975408836,0.611779842114629,1.40001521436443,NaN,1,1,,,,,
378,1,0,7496.jpg,6.11594673644322,6.72772295609047,9.23361444688362,0.611776219647254,2.50589149079315,NaN,1,1,,,,,
379,1,0,4525.jpg,9.30433708993223,9.92776195799161,11.4218556754558,0.623424868059374,1.49409371746424,NaN,1,1,,,,,
380,1,0,8050.jpg,11.4336051492164,12.0453913306501,14.0454109523489,0.611786181433672,2.00001962169881,NaN,1,1,,,,,
381,1,0,9045.jpg,14.1278580137587,14.7512940510924,16.0454278571979,0.623436037333704,1.29413380610549,NaN,1,1,,,,,
382,1,0,7130.jpg,16.3749477383572,16.9983816625854,19.2925097331172,0.623433924228266,2.29412807053177,NaN,1,1,,,,,
383,1,0,8116.jpg,19.3042700742817,19.9160381433758,21.3160436978269,0.611768069094069,1.40000555445113,NaN,1,1,21.2220077587217,,,,
384,1,0,8116.jpg,21.327815510138,21.939620709526,23.6454778472516,0.611805199388073,1.70585713772562,1.57655979682841,1,1,,,,,
385,1,0,7237.jpg,23.6690093969828,24.2807816922896,26.680790567335,0.611772295306764,2.40000887504539,NaN,1,1,,,,,
386,1,0,7820.jpg,26.6925590590517,27.3043310524863,28.7043263432788,0.611771993434559,1.3999952907925,NaN,1,1,,,,,
387,1,0,7190.jpg,28.7160897031654,29.327883431406,31.1278875972439,0.611793728240627,1.80000416583789,NaN,1,1,,,,,
388,1,0,5535.jpg,31.1396500515139,31.7514232524381,34.0573137772399,0.61177320092429,2.30589052480173,NaN,1,1,,,,,
389,1,0,4001.jpg,34.0690686847029,34.6808497343063,35.6808436968604,0.611781049603451,0.999993962554072,NaN,1,1,,,,,
390,1,0,2850.jpg,35.7043776615701,36.3161738047893,38.1161601601607,0.611796143219181,1.7999863553714,NaN,1,1,36.8221172176181,36.9750571972545,,,
391,1,0,4003.jpg,38.1279250294092,38.7396985322057,39.7396949097383,0.611773502796495,0.999996377532625,NaN,1,1,,,,,
392,1,0,7830.jpg,39.7514640051986,40.3632453566752,42.36324203608,0.611781351476566,1.99999667940483,NaN,1,1,,,,,
393,1,0,7180.jpg,42.3867744914278,42.9985458811179,45.3045034215711,0.611771389690148,2.30595754045316,NaN,1,1,,,,,
394,1,0,4530.jpg,45.316208821976,45.9280058708118,48.7280193946908,0.611797048835797,2.80001352387899,NaN,1,1,,,,,
395,1,0,6314.jpg,48.751537058296,49.3632966749665,51.1633144250582,0.611759616670497,1.80001775009168,NaN,1,1,,,,,
396,1,0,4490.jpg,51.1750774830725,51.7868476652739,52.6927262963072,0.611770182201326,0.905878631033374,NaN,1,1,,,,,
397,1,0,8116.jpg,52.7044902599391,53.3162658758411,54.822155555401,0.611775615901934,1.50588967955991,NaN,1,1,,,,,
398,1,0,7237.jpg,54.8339285752018,55.445692418084,57.7515913953102,0.611763842882283,2.30589897722621,NaN,1,1,,,,,
399,1,0,4520.jpg,57.7751111720218,58.3868870897968,61.3869033909014,0.611775917775049,3.00001630110455,3.60011519447107,0,1,58.4457950546675,,,,
400,1,0,5535.jpg,-0.894353448392394,-0.282571191299212,2.51743448389971,0.611782257093182,2.80000567519892,0.129479671767513,0,1,,,62.1399558481562,0.152831909351335,
401,1,0,2850.jpg,2.52919935314821,3.14097919526284,4.84686561460148,0.611779842114629,1.70588641933864,NaN,1,1,,,,,
402,1,0,9045.jpg,4.85862746512703,5.47040096792352,8.07067555097001,0.611773502796495,2.60027458304648,NaN,1,1,,,,,
403,1,0,7830.jpg,8.08245762693969,8.69395431283465,11.011625404245,0.611496685894963,2.31767109141038,NaN,1,1,,,,,
404,1,0,4001.jpg,11.0233763873675,11.6351622669281,14.2351850884743,0.611785879560557,2.60002282154619,NaN,1,1,,,,,
405,1,0,4525.jpg,14.258702148335,14.8704789717267,16.070470579677,0.611776823391665,1.19999160795032,NaN,1,1,,,,,
406,1,0,7190.jpg,16.0822348451802,16.6940095554664,17.9999037027355,0.611774710286227,1.3058941472691,NaN,1,1,,,,,
407,1,0,4000.jpg,18.0234654396972,18.646972417022,20.3410978914526,0.623506977324723,1.69412547443062,NaN,1,1,,,,,
408,1,0,7496.jpg,20.3528555157654,20.9648874212535,21.8705357237195,0.612031905488038,0.905648302466034,NaN,1,1,,,,,
409,1,0,4180.jpg,21.8823002910958,22.5058447005867,24.4943068393095,0.623544409490933,1.98846213872275,NaN,1,1,,,,,
410,1,0,4490.jpg,24.5060605392828,25.1176016004065,26.3296167821682,0.611541061123717,1.21201518176167,NaN,1,1,25.7765453673319,,,,
411,1,0,2312.jpg,26.3411350217457,26.9531714553177,28.2591157133893,0.61203643357203,1.30594425807158,NaN,1,1,,,,,
412,1,0,7130.jpg,28.2705660316988,28.8825768061251,30.9649281740139,0.612010774426381,2.0823513678888,NaN,1,1,,,,,
413,1,0,4530.jpg,30.9767090424948,31.706149048242,33.4943814017688,0.729440005747165,1.78823235352684,NaN,1,1,,,,,
414,1,0,6314.jpg,33.5061517047188,34.1176613711223,35.7179335391902,0.611509666403435,1.60027216806793,NaN,1,1,,,,,
415,1,0,4003.jpg,35.729717426394,36.3532283280592,38.6473757184185,0.623510901665213,2.29414739035929,NaN,1,1,,,,,
416,1,0,8050.jpg,38.6708939857681,39.2826469612482,40.9885460592232,0.611752975480158,1.70589909797491,NaN,1,1,,,,,
417,1,0,7820.jpg,41.0121201729489,41.7179510477836,42.529715554786,0.705830874834646,0.811764507002408,NaN,1,1,41.0710121385873,41.2239334021406,,,
418,1,0,7820.jpg,42.5414801221623,43.1532593605325,44.1885880798482,0.611779238370218,1.03532871931566,0.623626216884986,1,1,,,,,
419,1,0,7820.jpg,44.200331818035,44.8118499368638,46.9179972946204,0.611518118828826,2.10614735775653,1.10601030773159,1,1,,,,,
420,1,0,7180.jpg,46.9297416365525,47.541518158072,50.4474601822885,0.611776521519459,2.90594202421653,NaN,1,1,,,,,
421,1,0,4000.jpg,50.4592024111143,51.0707163037305,52.4474487111411,0.611513892616131,1.3767324074106,NaN,1,1,,,,,
422,1,0,8116.jpg,52.4592274665156,53.0824956628503,54.1062723328905,0.62326819633472,1.02377667004021,NaN,1,1,,,,,
423,1,0,7180.jpg,54.1180613519236,54.7295966774727,55.7415967052448,0.611535325549085,1.01200002777205,NaN,1,1,,,,,
424,1,0,7496.jpg,55.7533437640277,56.3651211911647,58.6945420582078,0.611777427136985,2.32942086704315,NaN,1,1,,,,,
425,1,0,4530.jpg,-2.63557703947208,-2.02381078161034,0.0115227676624272,0.611766257861746,2.03533354927276,NaN,1,1,60.5768701215557,,61.341784650941,,
426,1,0,9045.jpg,-0.0587944608851103,0.564569127096547,3.38809427713477,0.623363587981657,2.82352515003822,NaN,1,1,,,0.15273832893763,,
427,1,0,7237.jpg,3.55297330633766,4.21141838021958,5.176387306994,0.658445073881921,0.964968926774418,NaN,1,1,,,,,
428,1,0,5535.jpg,5.18814493130776,5.81165794607932,6.8114095051742,0.623513014771561,0.999751559094875,NaN,1,1,,,,,
429,1,0,2850.jpg,6.82317528003932,7.43496085772767,8.94083906614014,0.611785577688352,1.50587820841247,NaN,1,1,,,,,
430,1,0,4001.jpg,8.95261057657899,9.56439947486251,12.2703031009232,0.611788898283521,2.70590362606072,NaN,1,1,,,,,
431,1,0,4525.jpg,12.2820314436231,12.8938143044606,13.5996904601407,0.611782860837593,0.705876155680016,NaN,1,1,,,,,
432,1,0,4003.jpg,13.6114583481121,14.2232490576298,15.0232308849172,0.611790709517663,0.799981827287411,NaN,1,1,,,,,
433,1,0,2312.jpg,15.03501326276,15.6467979348308,17.9526628004878,0.611784672070826,2.30586486565699,NaN,1,1,,,,,
434,1,0,4180.jpg,17.964427065991,18.576207511851,20.9762284617882,0.611780445859949,2.40002094993724,NaN,1,1,,,,,
435,1,0,4180.jpg,20.987983067379,21.599797322936,23.3997574154173,0.611814255556965,1.79996009248134,NaN,0,1,,,,,
436,1,0,4520.jpg,23.4232910782548,24.035076354071,25.0706480805902,0.611785275816146,1.03557172651927,NaN,1,1,,,,,
437,1,0,7190.jpg,25.0824063086484,25.7059166065692,26.7059700379668,0.623510297920802,1.00005343139765,NaN,1,1,,,,,
438,1,0,4490.jpg,26.7176811739455,27.3292068395813,29.7294777397856,0.611525665635781,2.4002709002043,NaN,1,1,27.8234683980454,,,,
439,1,0,7820.jpg,29.7412232892066,30.4821930056787,32.164797523681,0.740969716472137,1.68260451800234,NaN,1,1,,,,,
440,1,0,6314.jpg,32.1765346206776,32.7883295564079,34.4471740073459,0.611794935730359,1.65884445093798,NaN,1,1,,,,,
441,1,0,7830.jpg,34.4706777848251,35.2116481050416,37.4824637851343,0.740970320216547,2.27081568009271,NaN,1,1,,,,,
442,1,0,7130.jpg,37.4942395217859,38.2236722825983,38.9177536836723,0.729432760812415,0.694081401074072,NaN,1,1,,,,,
443,1,0,7130.jpg,38.9295300240683,39.5410544822153,40.7413153602593,0.61152445814696,1.20026087804399,NaN,0,1,,,,,
444,1,0,8050.jpg,40.7530977381011,41.3766264502319,44.3648978056599,0.623528712130792,2.98827135542797,NaN,1,1,,,,,
445,1,0,4001.jpg,44.3766155828298,44.9883924062215,46.9060558300753,0.611776823391665,1.91766342385381,NaN,1,1,,,,,
446,1,0,7180.jpg,46.9178213030682,47.5293472705762,50.0352390632415,0.611525967507987,2.50589179266535,NaN,1,1,,,,,
447,1,0,4530.jpg,50.0470030268734,50.6587822652436,52.7646715221817,0.611779238370218,2.1058892569381,NaN,1,1,,,,,
448,1,0,7496.jpg,52.7764336745795,53.388264231241,55.7882311460371,0.611830556661516,2.3999669147961,NaN,1,1,,,,,
449,1,0,7820.jpg,55.7999824310318,56.4117707255709,57.71764645863,0.61178829453911,1.30587573305911,NaN,1,1,57.4589095949805,57.6118788562299,,,
450,1,0,9045.jpg,57.7294101203897,58.3411869437814,59.6470705255206,0.611776823391665,1.30588358173918,NaN,1,1,,,,,
451,1,0,4003.jpg,-1.62371496734249,-1.00021402746279,1.09391066209901,0.623500939879705,2.0941246895618,NaN,1,1,,,61.1295195189123,0.152860285347742,
452,1,0,7130.jpg,1.10567372011428,1.71746503337636,2.82334764912412,0.611791313262074,1.10588261574776,NaN,1,1,,,,,
453,1,0,4180.jpg,2.83509833037442,3.44689658669904,4.55275746764164,0.611798256324619,1.1058608809426,NaN,1,1,,,,,
454,1,0,4490.jpg,4.56452927995269,5.1762940284525,6.57631045030575,0.611764748499809,1.40001642185325,NaN,1,1,,,,,
455,1,0,4520.jpg,6.58807471580985,7.19985365230696,8.39984465651287,0.611778936497103,1.19999100420591,NaN,1,1,,,,,
456,1,0,7237.jpg,8.41162854371669,9.02338000983491,9.82340923107313,0.611751466118221,0.800029221238219,NaN,1,1,,,,,
457,1,0,4000.jpg,9.83515568611165,10.4469246608232,13.2469348641071,0.611768974711595,2.80001020328382,NaN,1,1,,,,,
458,1,0,4000.jpg,13.2587148269713,13.8704925559796,14.6704973255619,0.611777729008281,0.800004769582301,1.14126869080064,1,1,,,,,
459,1,0,8050.jpg,14.6822606854494,15.294026641438,17.0940220529792,0.611765955988631,1.7999954115412,NaN,1,1,,,,,
460,1,0,2850.jpg,17.1175602439007,17.7293358598026,19.9293561456216,0.611775615901934,2.20002028581894,NaN,1,1,,,,,
461,1,0,4525.jpg,19.9411285616779,20.5528851596255,21.658758115459,0.611756597947533,1.10587295583355,NaN,1,1,,,,,
462,1,0,2312.jpg,21.6822957026361,22.2940767522405,23.6940898534976,0.61178104960436,1.40001310125717,NaN,1,1,,,,,
463,1,0,6314.jpg,23.7058308748346,24.3176167543952,26.6234979211558,0.611785879560557,2.30588116676063,NaN,1,1,,,,,
464,1,0,5535.jpg,26.6352760727859,27.2470483680927,29.1529387721457,0.611772295306764,1.90589040405303,NaN,1,1,,,,,
465,1,0,7830.jpg,29.1647012264166,29.7764671824052,30.776468389894,0.611765955988631,1.00000120748882,NaN,1,1,,,,,
466,1,0,7830.jpg,30.7882800493499,31.4117710274431,33.8000545785117,0.623490978093287,2.38828355106853,NaN,0,1,,,,,
467,1,0,8116.jpg,33.8235704308836,34.4353475561475,36.235335722753,0.61177712526387,1.79998816660554,1.83540352327236,0,1,,,,,
468,1,0,7190.jpg,36.2471108556601,36.8588828490947,39.7647666119574,0.611771993434559,2.90588376286269,NaN,1,1,36.8824768863924,37.0354597318947,,,
469,1,0,7130.jpg,39.776529971844,40.388310417703,41.4942035989816,0.61178044585904,1.10589318127859,NaN,1,1,,,,,
470,1,0,7130.jpg,41.5059702794642,42.117724160561,43.9177385900566,0.611753881096774,1.8000144294956,NaN,0,1,,,,,
471,1,0,4001.jpg,43.9412740641274,44.5530388126272,45.2589213076262,0.611764748499809,0.705882494999059,NaN,1,1,,,,,
472,1,0,7820.jpg,45.2706837618962,45.8824602834156,47.9883513515879,0.611776521519459,2.10589106817224,NaN,1,1,,,,,
473,1,0,7830.jpg,48.0001183339427,48.6118939498447,50.2119056021156,0.611775615901934,1.60001165227095,NaN,1,1,,,,,
474,1,0,7496.jpg,50.2236659432801,50.8354605771374,53.035447958875,0.611794633857244,2.19998738173763,NaN,1,1,,,,,
475,1,0,6314.jpg,53.0472230917821,53.6589848215581,55.4589895911404,0.611761729775935,1.8000047695823,NaN,1,1,,,,,
476,1,0,4520.jpg,55.4707538566445,56.0825300762917,57.6825441435412,0.611776219647254,1.6000140672495,NaN,1,1,,,,,
477,1,0,4520.jpg,57.6943044847048,58.3061024391582,61.1060872851685,0.611797954453323,2.79998484601037,2.89422122832457,1,1,,,,,
478,1,0,4000.jpg,61.1178500413107,61.7296286759365,64.2355228835804,0.611778634625807,2.50589420764391,NaN,1,1,,,,,
