Trial,nBack,Valence,Image,imagePresentationTime,NoisePresentationTime,x,RT,Accuracy,Clock_1,Clock_2,dataOneMinPress_1,dataOneMinPress_2
1,1,0,9045.jpg,0.00876099350426784,0.608745054545636,1.12614931060983,NaN,1,,,,
2,1,0,4520.jpg,1.13791485818854,1.65557178297172,2.45557920907748,NaN,1,,,,
3,1,0,6314.jpg,2.46734294541085,2.98500228518782,3.27912074908272,NaN,1,,,,
4,1,0,2850.jpg,3.29088448541614,3.80854382519306,4.70266989631824,NaN,1,,,,
5,1,0,4000.jpg,4.71443484014856,5.23209357617702,5.52621385131727,NaN,1,,,,
6,1,0,8116.jpg,5.53797577640535,6.05563421055967,8.25566059436619,NaN,1,,,,
7,1,0,4001.jpg,8.26742372695111,8.78508427422491,8.98508348935195,NaN,1,,,,
8,1,0,4003.jpg,8.99684813130801,9.5145171310599,11.9145369943833,NaN,1,,,,
9,1,0,7830.jpg,11.9262995232198,12.4439603723679,13.4439688248459,NaN,1,,,,
10,1,0,8050.jpg,13.4557337686762,13.9733931084531,14.067508130982,NaN,1,,,,
11,1,0,8050.jpg,14.0792730748122,14.5969296977212,15.3969368219528,0.470644845588311,1,,,,
12,1,0,7820.jpg,15.4087183688649,15.9263605018115,17.8205113266225,NaN,1,,,,
13,1,0,4490.jpg,17.8322654029809,18.3499232333868,20.3499491945694,NaN,1,,,,
14,1,0,4180.jpg,20.3617120252802,20.8793722706797,22.2793879077641,NaN,1,,,,
15,1,0,4530.jpg,22.291153757217,22.808810380126,24.5029490092186,NaN,1,,,,
16,1,0,5535.jpg,24.5147139530489,25.0323826509265,27.3265192272744,NaN,1,,,,
17,1,0,7496.jpg,27.3382832654821,27.8559416996363,27.9500573259136,NaN,1,,,,
18,1,0,7496.jpg,27.9618183453791,28.4794797982756,29.1736030317831,0.658912926797314,1,,,,
19,1,0,7237.jpg,29.1853697868587,29.7030270135161,29.7971429416676,NaN,1,,,,
20,1,0,7130.jpg,29.8089060742526,30.3265642065327,30.8206954698944,NaN,1,,,,
21,1,0,4525.jpg,30.8324495462529,31.3501085841556,33.150129594601,NaN,1,,,,
22,1,0,7180.jpg,33.1618915196891,33.6795650475542,35.4795751905279,NaN,1,,,,
23,1,0,2312.jpg,35.491339832484,36.0089997760093,38.2090255560674,NaN,1,,,,
24,1,0,2312.jpg,38.2207935186398,38.7384486321777,40.2325838199042,0.647142851105343,1,,,,
25,1,0,7190.jpg,40.2443484618603,40.762003273524,40.8561228241661,NaN,1,,,,
26,1,0,4490.jpg,40.8678859567511,41.3855449946538,43.6796918347251,NaN,1,,,,
27,1,0,7130.jpg,43.6914555710584,44.2091161183322,46.209207888094,NaN,1,,,,
28,1,0,7130.jpg,46.2209320789051,46.7385917205562,47.4326865778875,0.600109036966899,1,,,,
29,1,0,7820.jpg,47.4444720491644,47.9621114652431,49.3621578934976,NaN,1,,,,
30,1,0,7180.jpg,49.3738962723968,49.8915646684002,52.3857276285546,NaN,1,,,,
31,1,0,4000.jpg,52.3974841199068,52.9151220266144,54.7151463576762,NaN,1,,,,
32,1,0,2850.jpg,54.726909188387,55.2445673206671,57.3387294355737,NaN,1,,,,
33,1,0,7237.jpg,57.3504753613283,57.8681896422126,58.9622829297979,NaN,1,,,,
34,1,0,4001.jpg,58.9740418361438,59.4916984590529,60.6917393328217,NaN,1,,,,
35,1,0,5535.jpg,60.7034798248405,61.2211762951461,62.6211898191109,NaN,1,,,,
36,1,0,6314.jpg,62.6447166880293,63.1623506703721,63.7623320145455,NaN,1,,,,
37,1,0,4003.jpg,63.7740975621242,64.291766561876,66.1859213110518,0.482552575922853,0,,,,
38,1,0,8050.jpg,66.1976621049448,66.715324765338,68.0094534929564,NaN,1,,,,
39,1,0,4525.jpg,68.0212341342458,68.5388786821862,70.1388959493914,NaN,1,,,,
40,1,0,4180.jpg,70.1506602894732,70.6683241573634,71.4683672046266,NaN,1,,,,
41,1,0,7190.jpg,71.4801233941046,71.9977628101833,72.291885198443,NaN,1,,,,
42,1,0,8116.jpg,72.3154090486192,72.8330665771509,74.0330808859887,NaN,1,,,,
43,1,0,4520.jpg,74.0566110755234,74.5742891315018,75.468384411457,NaN,1,,,,
44,1,0,4530.jpg,75.4801774295893,75.9978147325485,77.9978823523729,NaN,1,,,,
45,1,0,7496.jpg,78.0095971850832,78.5272571286087,80.5272852029107,NaN,1,,,,
46,1,0,7496.jpg,80.5390471279989,81.0567034490337,82.7508761899126,NaN,0,,,,
47,1,0,2312.jpg,82.7626058144596,83.2802974547777,83.5743860331252,NaN,1,,,,
48,1,0,7830.jpg,83.5861693912827,83.2802974547777,84.103813939223,NaN,1,,,,
49,1,0,9045.jpg,84.127337487525,84.6450113172644,86.0450206149902,NaN,1,,,,
50,1,0,4525.jpg,86.0567843513236,86.5744506342075,87.2685696414761,NaN,1,,,,
51,1,0,4180.jpg,87.2803203972182,87.7979788313724,90.19804910769,NaN,1,,,,
52,1,0,7820.jpg,90.2097784303627,90.7274338457749,93.2215844290864,NaN,1,,,,
53,1,0,6314.jpg,93.2333469579229,93.7510084108193,94.4451307387043,NaN,1,,,,
54,1,0,4490.jpg,94.4568917581698,94.974571021645,96.974575247884,NaN,1,,,,
55,1,0,9045.jpg,96.9863423048337,97.5039995314912,99.7981584465311,NaN,1,,,,
56,1,0,7130.jpg,99.8099436159338,100.327624992529,101.821744180922,NaN,1,,,,
57,1,0,2312.jpg,101.833512747243,102.351134654617,104.551158925304,NaN,1,,,,
58,1,0,5535.jpg,104.562920850392,105.080612792584,107.48064141026,NaN,1,,,,
59,1,0,4520.jpg,107.492376468543,108.010039128936,109.41005114353,NaN,1,,,,
60,1,0,2850.jpg,109.421830879197,109.939487200231,111.73949553196,NaN,1,,,,
61,1,0,4000.jpg,111.763062852023,112.280683250026,113.680698585236,NaN,1,,,,
62,1,0,7237.jpg,113.704231491639,112.280683250026,114.221888114548,NaN,1,,,,
63,1,0,4530.jpg,114.233649737762,114.751321152507,115.845472399942,NaN,1,,,,
64,1,0,8116.jpg,115.857245796251,116.374859553021,117.974878933346,NaN,1,,,,
65,1,0,7190.jpg,117.986644782798,118.50430804694,119.798463641364,NaN,1,,,,
66,1,0,7190.jpg,119.810205039005,120.32786136004,121.222026071065,0.941274899340101,1,,,,
67,1,0,8050.jpg,121.23375267687,121.751445826559,124.151442143693,NaN,1,,,,
68,1,0,8050.jpg,124.163204068781,124.680871559162,126.775040013427,0.411876275041209,1,,,,
69,1,0,7830.jpg,126.786775675459,127.304443467714,129.504465927155,NaN,1,,,,
70,1,0,4001.jpg,129.516237512218,130.033883871404,130.928022923121,NaN,1,,,,
71,1,0,4003.jpg,130.951538622693,131.469196151224,132.963333150196,NaN,1,,,,
72,1,0,7180.jpg,132.986860019115,133.504520566388,135.704592231327,NaN,1,,,,
73,1,0,7496.jpg,135.728132382711,136.24574674323,138.645819434541,NaN,1,,,,
74,1,0,4530.jpg,138.65753698412,139.17519300328,140.869331632373,NaN,1,,,,
75,1,0,4530.jpg,140.881154234178,141.398789424018,141.904635821964,0.364753408009051,1,,,,
76,1,0,9045.jpg,141.916413746386,142.434064935559,144.128255788891,NaN,1,,,,
77,1,0,9045.jpg,144.140024053338,144.657624527642,144.763501173385,0.470607715059714,1,,,,
78,1,0,4520.jpg,144.775263702222,145.292937230087,146.292938437584,NaN,1,,,,
79,1,0,8050.jpg,146.304710928269,146.822379928021,148.516517651491,NaN,1,,,,
80,1,0,4180.jpg,148.54003093607,149.057687558979,151.457739420969,NaN,1,,,,
81,1,0,7130.jpg,151.469489572963,151.987184232023,154.081308914527,NaN,1,,,,
82,1,0,7237.jpg,154.093048199049,154.61071357631,155.810757468821,NaN,1,,,,
83,1,0,4000.jpg,155.822535393243,156.340144621899,158.234288503603,NaN,1,,,,
84,1,0,6314.jpg,158.257811146283,158.775474410425,159.775481353531,NaN,1,,,,
85,1,0,4001.jpg,159.787247806733,160.304922240221,162.799056522325,NaN,1,,,,
86,1,0,4490.jpg,162.822590938098,163.340238504781,165.834394219954,NaN,1,,,,
87,1,0,7830.jpg,165.84615886191,166.363861671574,168.563885942261,NaN,1,,,,
88,1,0,8116.jpg,168.575608019953,169.093271284094,170.093278529076,NaN,1,,,,
89,1,0,2850.jpg,170.105070641585,170.622746886318,171.716864927589,NaN,1,,,,
90,1,0,7180.jpg,171.728597269004,172.246275928731,172.846259687898,NaN,1,,,,
91,1,0,7820.jpg,172.858030065464,173.37568216026,175.375706913946,NaN,1,,,,
92,1,0,4525.jpg,175.387476687764,175.905144781893,178.105157883234,NaN,1,,,,
93,1,0,7190.jpg,178.116957240725,178.63460571303,180.928729006912,NaN,1,,,,
94,1,0,2312.jpg,180.940497875107,181.458165667362,182.858170738849,NaN,1,,,,
95,1,0,4003.jpg,182.869947455774,183.387592305589,184.881745605768,NaN,1,,,,
96,1,0,5535.jpg,184.893527756429,185.411155097539,185.705269335194,NaN,1,,,,
97,1,0,7496.jpg,185.717033071528,186.234728334337,188.528840760747,NaN,1,,,,
98,1,0,7180.jpg,188.540603893332,189.058287383046,190.152393047475,0.458896806714165,0,,,,
99,1,0,7190.jpg,190.164158293179,190.681826689182,191.175945273827,NaN,1,,,,
100,1,0,4003.jpg,191.187710217657,191.705387669887,193.999505530034,NaN,1,,,,
101,1,0,4001.jpg,194.011271379487,194.528940379239,196.423092411546,NaN,1,,,,
102,1,0,4001.jpg,196.434852525389,196.952518506399,199.152539154595,0.670670323772242,1,,,,
103,1,0,4525.jpg,199.164301381558,199.681949853863,200.376067049886,NaN,1,,,,
104,1,0,9045.jpg,200.3878380312,200.905498578474,202.599640226309,NaN,1,,,,
105,1,0,6314.jpg,202.611394906416,203.129055755564,204.823230307688,NaN,1,,,,
106,1,0,5535.jpg,204.834973818449,205.352625913245,205.646735019039,NaN,1,,,,
107,1,0,2312.jpg,205.658530150291,206.176171679489,207.17616745325,NaN,1,,,,
108,1,0,7820.jpg,207.187931793332,207.705594453725,208.399713460994,NaN,1,,,,
109,1,0,4520.jpg,208.411483536686,208.929139857721,210.729180188116,NaN,1,,,,
110,1,0,7496.jpg,210.740926113871,211.258585453648,211.952725893985,NaN,1,,,,
111,1,0,4000.jpg,211.964480574092,212.482136895127,214.776276188343,NaN,1,,,,
112,1,0,7237.jpg,214.788050792148,215.305778657372,217.399839946291,NaN,1,,,,
113,1,0,8050.jpg,217.411607908863,217.929276304866,218.92927509737,NaN,1,,,,
114,1,0,7830.jpg,218.941038229954,219.458687306008,220.658710067324,NaN,1,,,,
115,1,0,7130.jpg,220.670475916777,221.188241818152,222.988158681993,NaN,1,,,,
116,1,0,2850.jpg,222.999922418326,223.517582663726,225.61172666618,NaN,1,,,,
117,1,0,4180.jpg,225.623507307469,226.141192306555,227.635293986243,NaN,1,,,,
118,1,0,8116.jpg,227.647053496337,228.164708911749,229.564723643211,NaN,1,,,,
119,1,0,4530.jpg,229.576489492664,230.094142794957,230.894170748509,NaN,1,,,,
120,1,0,4490.jpg,230.905924522993,231.423588390884,232.5177082434,NaN,1,,,,
121,1,0,7237.jpg,232.529471677859,233.047164525674,234.84715263183,NaN,1,,,,
122,1,0,4001.jpg,234.858926028138,235.376584764167,237.576627147307,NaN,1,,,,
123,1,0,4001.jpg,237.588367639326,238.106047506549,239.906048895171,0.506046842425803,1,,,,
124,1,0,4001.jpg,239.917813235252,238.106047506549,240.435467141293,NaN,0,,,,
125,1,0,7496.jpg,240.447231481375,240.964895349265,242.65903911022,0.400061220091061,0,,,,
126,1,0,7820.jpg,242.670798016566,243.188465808821,244.282582340721,NaN,1,,,,
127,1,0,4525.jpg,244.294346378928,244.812017189925,245.906136740567,NaN,1,,,,
128,1,0,4530.jpg,245.917900476901,246.435589400351,246.729676469327,NaN,1,,,,
129,1,0,9045.jpg,246.741441413158,247.259174712118,249.35324777413,NaN,1,,,,
130,1,0,9045.jpg,249.36501483108,249.882672359612,250.68269427568,0.505940582701783,1,,,,
131,1,0,4180.jpg,250.694448352038,251.212103163702,251.812103827825,NaN,1,,,,
132,1,0,4000.jpg,251.823869677278,252.341532035797,253.141545801262,NaN,1,,,,
133,1,0,6314.jpg,253.153316782576,253.670966764253,254.565113664699,NaN,1,,,,
134,1,0,5535.jpg,254.576874986038,255.094509874004,256.494525511088,NaN,1,,,,
135,1,0,2850.jpg,256.506296794277,257.02395009657,258.423982336736,NaN,1,,,,
136,1,0,4490.jpg,258.435747884314,258.953466391438,259.953418393438,NaN,1,,,,
137,1,0,8116.jpg,259.965160696702,260.482837545183,261.482848714529,NaN,1,,,,
138,1,0,2312.jpg,261.494606715252,262.012270885017,263.306390556409,NaN,1,,,,
139,1,0,7190.jpg,263.318153688994,263.835812425022,265.529956185976,NaN,1,,,,
140,1,0,4520.jpg,265.553473696794,266.071168657728,268.471164371115,NaN,1,,,,
141,1,0,4003.jpg,268.482933541184,269.000605257804,270.800609665167,NaN,1,,,,
142,1,0,7830.jpg,270.812398155186,271.330041193756,272.330043306875,NaN,1,,,,
143,1,0,7180.jpg,272.34181217507,272.859466081111,274.953662609678,NaN,1,,,,
144,1,0,7180.jpg,274.965431175999,275.483040102782,275.7889165674,NaN,0,,,,
145,1,0,7130.jpg,275.800680605608,276.318355944718,276.412469457876,0.223596420737749,0,,,,
146,1,0,8050.jpg,276.424258853518,276.941880760892,277.141877561025,NaN,1,,,,
147,1,0,7180.jpg,277.153699257208,277.671312108356,278.071311746107,NaN,1,,,,
148,1,0,9045.jpg,278.083080614302,278.60074357657,279.400742248323,NaN,1,,,,
149,1,0,2850.jpg,279.412497230304,279.930169550672,280.624280407337,NaN,1,,,,
150,1,0,4000.jpg,280.636044747419,279.930169550672,281.153698351586,NaN,1,,,,
151,1,0,8116.jpg,281.165462691667,281.683135012036,283.083136762906,NaN,1,,,,
152,1,0,8116.jpg,283.094902310485,283.612575536476,283.812574147854,NaN,0,,,,
153,1,0,8116.jpg,283.824324299848,284.341989677109,284.636101801646,0.764808892489896,1,,,,
154,1,0,4530.jpg,284.647864934231,285.165553555807,286.765543352458,NaN,1,,,,
155,1,0,4003.jpg,286.777308900037,287.294966730443,289.49499462362,NaN,1,,,,
156,1,0,7190.jpg,289.506759869325,290.024418303479,292.518566169923,NaN,1,,,,
157,1,0,8050.jpg,292.53033232125,293.047991962901,294.44800790186,NaN,1,,,,
158,1,0,7237.jpg,294.459789448772,294.977460561643,297.471577938791,NaN,1,,,,
159,1,0,4520.jpg,297.48334348637,298.001017014235,299.401056197508,NaN,1,,,,
160,1,0,7820.jpg,299.412816915099,299.930442444964,301.224585058796,NaN,1,,,,
161,1,0,4001.jpg,301.248103475236,301.765769154372,302.565772354239,NaN,1,,,,
162,1,0,4180.jpg,302.57753307183,303.095205392198,304.189319810978,NaN,1,,,,
163,1,0,7496.jpg,304.21284909489,304.730509944038,305.930523951002,NaN,1,,,,
164,1,0,2312.jpg,305.942286781713,306.459948536484,306.55406265339,NaN,1,,,,
165,1,0,5535.jpg,306.565825484101,307.083495993223,309.377631362075,NaN,1,,,,
166,1,0,4525.jpg,309.401163362855,309.918820891386,310.012934706418,NaN,1,,,,
167,1,0,4490.jpg,310.024696933381,310.542356273158,311.636486993146,NaN,1,,,,
168,1,0,7830.jpg,311.648298727479,312.165911880501,314.260053166087,NaN,1,,,,
169,1,0,7130.jpg,314.271819317414,314.789476845946,315.789484694675,NaN,1,,,,
170,1,0,6314.jpg,315.813017299204,316.330675431484,317.824809109839,NaN,1,,,,
171,1,0,7180.jpg,317.836573148047,318.354236412189,320.448375584655,NaN,1,,,,
172,1,0,4530.jpg,320.460140830359,320.977801679507,323.271947312082,NaN,1,,,,
173,1,0,7237.jpg,323.283711350289,323.801370086318,326.201401118987,NaN,1,,,,
174,1,0,7237.jpg,326.213175119044,326.730824496972,327.130834096572,NaN,0,,,,
175,1,0,7496.jpg,327.142588776679,327.660274681387,328.260251497447,NaN,1,,,,
176,1,0,4520.jpg,328.272033044359,328.789679101671,331.083820508006,NaN,1,,,,
177,1,0,4520.jpg,331.095587263082,331.613246602859,333.107377262472,0.447112844808316,1,,,,
178,1,0,2850.jpg,333.119143715673,333.636815734167,334.930937518678,NaN,1,,,,
179,1,0,2850.jpg,334.942700047515,335.460371160386,336.95449397127,0.729507419766378,1,,,,
180,1,0,4003.jpg,336.966258311352,337.483929122349,339.578075539796,NaN,1,,,,
181,1,0,6314.jpg,339.589821163677,340.107501936523,341.401615872305,NaN,1,,,,
182,1,0,7830.jpg,341.413390777984,341.931038948415,342.425158136808,NaN,1,,,,
183,1,0,5535.jpg,342.436924590009,342.954584533535,344.048711027284,NaN,1,,,,
184,1,0,4000.jpg,344.06048351797,344.578134707143,345.67226965337,NaN,1,,,,
185,1,0,7190.jpg,345.684033691578,346.201687899493,348.695835765936,NaN,1,,,,
186,1,0,9045.jpg,348.707605841628,349.225260049544,350.82527882612,NaN,1,,,,
187,1,0,4490.jpg,350.837041958705,351.354702505979,353.154724120172,NaN,1,,,,
188,1,0,7130.jpg,353.166486950883,353.684168025604,355.484168508603,NaN,1,,,,
189,1,0,7130.jpg,355.495931339313,356.01359067909,356.90771705209,0.823624253540515,1,,,,
190,1,0,4001.jpg,356.931252977234,357.448907788898,358.743035610894,NaN,1,,,,
191,1,0,8050.jpg,358.754848552724,359.272461705746,360.672477040956,NaN,1,,,,
192,1,0,8050.jpg,360.684241079164,361.201916720149,361.601901264189,0.529705026628335,1,,,,
193,1,0,4180.jpg,361.613671339881,362.131326453419,363.531339071761,NaN,1,,,,
194,1,0,2312.jpg,363.554909712441,364.072544298532,365.872549611518,NaN,1,,,,
195,1,0,2312.jpg,365.884313649726,366.401974498874,367.496102803868,0.988402898233971,1,,,,
196,1,0,4525.jpg,367.507871973937,368.025538256821,370.119667467438,NaN,1,,,,
197,1,0,7820.jpg,370.131438146879,370.649110165373,372.543234727127,NaN,1,,,,
198,1,0,7820.jpg,372.554997557838,373.072657501363,373.966807420551,NaN,0,,,,
199,1,0,7820.jpg,373.978546705073,374.496228987291,375.590331632977,0.694214399520774,1,,,,
200,1,0,8116.jpg,375.602103519914,376.119758633452,377.119782783389,NaN,1,,,,
201,1,0,7180.jpg,377.131526596024,377.649196501399,379.649216726971,NaN,1,,,,
202,1,0,7830.jpg,379.660981972676,380.178642218075,382.072779156672,NaN,1,,,,
203,1,0,7830.jpg,382.084543496754,382.602203440279,383.696331745274,NaN,0,,,,
204,1,0,4003.jpg,383.708096689104,384.225778669447,386.025775228081,NaN,1,,,,
205,1,0,4490.jpg,386.037540473786,386.555201021059,388.955230242483,NaN,1,,,,
206,1,0,4520.jpg,388.967002733169,389.484680185399,391.484677770405,NaN,1,,,,
207,1,0,7130.jpg,391.496441506739,392.014098129648,393.814119743842,NaN,1,,,,
208,1,0,8050.jpg,393.825888310163,394.343547046191,394.543543242576,NaN,1,,,,
209,1,0,6314.jpg,394.555316638884,395.072970243051,396.072976280535,NaN,1,,,,
210,1,0,7237.jpg,396.08474726185,396.602413544734,398.096535449995,NaN,1,,,,
211,1,0,4000.jpg,398.108303110693,398.625967582332,399.720087434848,NaN,1,,,,
212,1,0,7496.jpg,399.73187471737,400.249516850317,400.343625835361,NaN,1,,,,
213,1,0,4530.jpg,400.355394703556,400.873048609598,401.36716991111,NaN,1,,,,
214,1,0,7820.jpg,401.378933345569,401.896593590969,403.990732763435,NaN,1,,,,
215,1,0,4001.jpg,404.002501027882,401.896593590969,404.520153424552,NaN,1,,,,
216,1,0,7190.jpg,404.531923802118,405.049581632524,407.249610733198,NaN,1,,,,
217,1,0,2312.jpg,407.261369639544,407.779028677447,407.979042382536,NaN,1,,,,
218,1,0,9045.jpg,407.990791025159,408.508448855565,410.202601672745,NaN,1,,,,
219,1,0,9045.jpg,410.214406765846,410.732009353271,412.026143212751,0.705921383501618,1,,,,
220,1,0,2850.jpg,412.0379102697,412.555577156333,413.049688194122,NaN,1,,,,
221,1,0,5535.jpg,413.061456156694,413.579123043327,414.979177320311,NaN,1,,,,
222,1,0,8116.jpg,414.990925661059,415.508548474056,415.802707389096,NaN,1,,,,
223,1,0,8116.jpg,415.814431881781,416.332091523432,418.026230756273,1.0706883758503,1,,,,
224,1,0,4525.jpg,418.037989964494,418.55565926612,420.049784491997,NaN,1,,,,
225,1,0,4180.jpg,420.061554567689,420.579209983101,420.673322288762,NaN,1,,,,
226,1,0,4001.jpg,420.685088440089,421.20274808174,421.296862802395,NaN,1,,,,
227,1,0,4000.jpg,421.308626840603,421.826285274757,422.120401323658,NaN,1,,,,
228,1,0,7130.jpg,422.132166267488,421.826285274757,422.649820475404,NaN,1,,,,
229,1,0,7130.jpg,422.661584513611,423.179245966508,424.273384535225,0.953041654415529,1,,,,
230,1,0,4525.jpg,424.285139517206,424.802797649487,426.896978480595,NaN,1,,,,
231,1,0,2312.jpg,426.908724708223,427.426365029925,429.026393466476,NaN,1,,,,
232,1,0,5535.jpg,429.038147542834,429.555831636297,430.849980589488,NaN,1,,,,
233,1,0,2850.jpg,430.861702365305,431.379363516327,433.579396541367,NaN,1,,,,
234,1,0,6314.jpg,433.591157560832,434.108810863125,434.308809172629,NaN,1,,,,
235,1,0,7180.jpg,434.320578342698,434.838238588098,437.132379088811,NaN,1,,,,
236,1,0,7190.jpg,437.144143127018,437.66180276867,437.861802587545,NaN,1,,,,
237,1,0,7237.jpg,437.873566927627,438.391222041165,439.685354391274,NaN,1,,,,
238,1,0,7830.jpg,439.697124165091,440.214796183585,440.508896535027,NaN,1,,,,
239,1,0,8050.jpg,440.520660875109,441.038322026131,442.438337059467,NaN,1,,,,
240,1,0,7820.jpg,442.450098380807,441.038322026131,442.967753192471,NaN,1,,,,
241,1,0,7496.jpg,442.979518438175,443.497180192946,445.391315018423,NaN,1,,,,
242,1,0,4003.jpg,445.403099885952,445.920743830144,448.12076659146,NaN,1,,,,
243,1,0,4520.jpg,448.132555081479,448.650200233168,450.944338017012,NaN,1,,,,
244,1,0,4530.jpg,450.956101451472,451.473760489374,453.967908657692,NaN,1,,,,
245,1,0,4180.jpg,453.979688695233,454.497345318142,455.791460763295,NaN,1,,,,
246,1,0,9045.jpg,455.803226914622,456.320888367519,457.015010997278,NaN,1,,,,
247,1,0,9045.jpg,457.026776544856,457.544435582759,457.744438118503,NaN,0,,,,
248,1,0,4490.jpg,457.756200949213,458.2738566665,459.567995959715,NaN,1,,,,
249,1,0,4490.jpg,459.579756073558,460.09741360209,461.591542148584,NaN,0,,,,
250,1,0,8116.jpg,461.603309507408,462.120967639688,464.015108200775,NaN,1,,,,
251,1,0,7190.jpg,464.026872540857,464.544532786257,464.744530190139,NaN,1,,,,
252,1,0,4001.jpg,464.756316265164,465.273953869997,466.968089480348,NaN,1,,,,
253,1,0,8116.jpg,466.979856235423,467.497514065829,468.791672980869,NaN,1,,,,
254,1,0,4525.jpg,468.803409548523,469.3210688883,469.721073959787,NaN,1,,,,
255,1,0,6314.jpg,469.732837092372,470.25050367713,472.650523540453,NaN,1,,,,
256,1,0,2850.jpg,472.662286673038,473.179945409067,474.674080596793,NaN,1,,,,
257,1,0,4000.jpg,474.685859728712,475.203513936627,476.297632279772,NaN,1,,,,
258,1,0,7130.jpg,476.309399638596,476.827056563379,479.227089709168,NaN,1,,,,
259,1,0,4520.jpg,479.238850124885,479.756537840839,481.450661074346,NaN,1,,,,
260,1,0,9045.jpg,481.462415452579,481.980083848582,483.074206417967,NaN,1,,,,
261,1,0,7180.jpg,483.085965626187,483.603621343473,485.697821796405,NaN,1,,,,
262,1,0,7830.jpg,485.709558967807,486.227219816955,487.521318055278,NaN,1,,,,
263,1,0,7496.jpg,487.533084206605,488.050743244508,489.450765220951,NaN,1,,,,
264,1,0,2312.jpg,489.462527146039,489.980186183942,491.674317869927,NaN,1,,,,
265,1,0,4490.jpg,491.686084323129,492.203756945371,493.097865205917,NaN,1,,,,
266,1,0,8050.jpg,493.109632866616,493.62728918765,494.227295889258,NaN,1,,,,
267,1,0,4530.jpg,494.239059323717,494.756719267243,496.250853247472,NaN,1,,,,
268,1,0,4530.jpg,496.262620304422,496.780275719834,498.980303613012,0.611856773966906,1,,,,
269,1,0,7237.jpg,498.992077311194,499.509725481625,500.509736349097,NaN,1,,,,
270,1,0,4180.jpg,500.521500689179,501.039170292679,501.239196676486,NaN,1,,,,
271,1,0,4180.jpg,501.250952865964,501.768592583916,502.862710927062,0.670664588162026,1,,,,
272,1,0,4003.jpg,502.874478889634,503.392134908795,504.08625723668,NaN,1,,,,
273,1,0,7820.jpg,504.09802006739,504.615682124035,505.615689972765,NaN,1,,,,
274,1,0,5535.jpg,505.627457633463,506.145117275114,508.239255843832,NaN,1,,,,
275,1,0,8050.jpg,508.251020787662,508.768678316194,509.76868948554,NaN,1,,,,
276,1,0,7830.jpg,509.780452316251,510.298122523499,511.298120712254,NaN,1,,,,
277,1,0,7830.jpg,511.309884750462,511.827579711396,512.721670463238,0.705978739602756,1,,,,
278,1,0,2312.jpg,512.733435105194,513.251095954342,513.545211097621,NaN,1,,,,
279,1,0,8116.jpg,513.556975437702,514.074636890599,514.674639064093,NaN,1,,,,
280,1,0,4180.jpg,514.686403404175,515.204065158946,515.404069807809,NaN,1,,,,
281,1,0,5535.jpg,515.415827204784,515.933504958888,517.027613642058,NaN,1,,,,
282,1,0,9045.jpg,517.03937798214,517.557037321917,518.157041608531,NaN,1,,,,
283,1,0,4530.jpg,518.168805646738,518.686464684641,519.380586710652,NaN,1,,,,
284,1,0,4001.jpg,519.392351654482,519.910010994259,521.004135374889,NaN,1,,,,
285,1,0,7180.jpg,521.015903639335,521.53356207349,521.827678726139,NaN,1,,,,
286,1,0,7130.jpg,521.839443669969,522.357103613495,523.557115507339,NaN,1,,,,
287,1,0,7496.jpg,523.568879847421,524.086539489072,525.886562612637,NaN,1,,,,
288,1,0,7820.jpg,525.898324537725,526.415983575628,527.015989975361,NaN,1,,,,
289,1,0,6314.jpg,527.027750994826,527.54541365522,529.545433578918,NaN,1,,,,
290,1,0,4490.jpg,529.557199428371,530.074858466274,530.168971677557,NaN,1,,,,
291,1,0,7190.jpg,530.192502470841,530.710160603121,531.710170263096,NaN,1,,,,
292,1,0,4525.jpg,531.721939131291,530.710160603121,532.239588811093,NaN,1,,,,
293,1,0,4003.jpg,532.251353151174,532.76901671719,533.263132283093,NaN,1,,,,
294,1,0,7237.jpg,533.274896925049,532.76901671719,533.792550529216,NaN,1,,,,
295,1,0,2850.jpg,533.80432151053,534.321975718446,534.72197777119,NaN,1,,,,
296,1,0,4520.jpg,534.733740903775,535.251402054797,535.545517801824,NaN,1,,,,
297,1,0,4000.jpg,535.557286971894,536.074951141658,536.674960862008,NaN,1,,,,
298,1,0,7180.jpg,536.68670950463,537.204368542533,537.604366670913,NaN,1,,,,
299,1,0,4530.jpg,537.616134331611,538.133793671388,538.427911833409,NaN,1,,,,
300,1,0,4530.jpg,538.439677079113,538.957344569494,540.451468889749,0.647161869180991,1,,,,
301,1,0,9045.jpg,540.463232324208,540.980904040828,543.275036994685,NaN,1,,,,
302,1,0,7496.jpg,543.28680224039,543.80445825955,546.204528535868,NaN,1,,,,
303,1,0,7496.jpg,546.216370457623,546.733913273953,547.23979770805,NaN,0,,,,
304,1,0,7237.jpg,547.251561746258,547.769220784161,548.969235394873,NaN,1,,,,
305,1,0,7130.jpg,548.980997621835,549.498658470983,550.392782730863,NaN,1,,,,
306,1,0,4003.jpg,550.404544655951,550.922217580068,552.216364420139,NaN,1,,,,
307,1,0,4001.jpg,552.228107327151,552.745763044438,553.345765519806,NaN,1,,,,
308,1,0,6314.jpg,553.357539821737,553.875197954017,553.969302712823,NaN,1,,,,
309,1,0,8050.jpg,553.981069166024,554.498729109549,555.592855905173,NaN,1,,,,
310,1,0,2312.jpg,555.604617830261,556.122282603774,556.522291599625,NaN,1,,,,
311,1,0,7820.jpg,556.534045072235,556.122282603774,557.051697468905,NaN,1,,,,
312,1,0,5535.jpg,557.063462412736,557.58112084689,559.981225536868,NaN,1,,,,
313,1,0,8116.jpg,559.992952142673,560.510596690613,561.604700543796,NaN,1,,,,
314,1,0,4520.jpg,561.61646790262,562.134127544271,564.628275712589,NaN,1,,,,
315,1,0,4525.jpg,564.640039750797,565.15770029807,567.051837538542,NaN,1,,,,
316,1,0,4490.jpg,567.063605501114,565.15770029807,567.581256388413,NaN,1,,,,
317,1,0,4180.jpg,567.593021030369,568.110681275769,569.804815376748,NaN,1,,,,
318,1,0,7190.jpg,569.816581226201,570.334245395965,572.134262482046,NaN,1,,,,
319,1,0,7830.jpg,572.146025916505,572.663685558156,574.263702221613,NaN,1,,,,
320,1,0,7830.jpg,574.275489504135,574.793126807095,576.19314184043,NaN,0,,,,
321,1,0,4000.jpg,576.204903463644,576.722576689635,577.216726367324,NaN,1,,,,
322,1,0,4000.jpg,577.228482556802,577.746108992289,579.746136764717,NaN,0,,,,
323,1,0,2850.jpg,579.757952121542,580.275555916463,580.781440652435,NaN,1,,,,
324,1,0,2850.jpg,580.79320740751,581.310865841665,582.20498617718,0.811857498464974,1,,,,
325,1,0,7190.jpg,582.216799420884,582.734448195064,585.028558508355,NaN,1,,,,
326,1,0,4001.jpg,585.040321942814,585.557980678843,587.758008270146,NaN,1,,,,
327,1,0,4490.jpg,587.769772006479,588.287443119351,589.287441911854,NaN,1,,,,
328,1,0,7830.jpg,589.29920444069,589.816896684757,590.616871206573,NaN,1,,,,
329,1,0,7130.jpg,590.628634942907,591.146303037036,592.640427055416,NaN,1,,,,
330,1,0,7180.jpg,592.652197734857,593.169852244646,595.463996971598,NaN,1,,,,
331,1,0,4525.jpg,595.475762519176,595.993420047708,598.287565378408,NaN,1,,,,
332,1,0,5535.jpg,598.299330322239,598.81699932199,600.311122736623,NaN,1,,,,
1,1,2,4320.jpg,0.0137935385635046,0.531414238440675,2.13118215754344,NaN,1,,,,
2,1,2,9360.jpg,2.14294498825416,2.66060312053423,4.66062727047142,NaN,1,,,,
3,1,2,2490.jpg,4.67239311992444,5.19005064845601,7.08419090766938,NaN,1,,,,
4,1,2,7920.jpg,7.09595404025436,7.61361338003121,8.90774452264327,NaN,1,,,,
5,1,2,2221.jpg,8.91951007022203,9.43716367438878,11.8371953108067,NaN,1,,,,
6,1,2,9042.jpg,11.848963273379,12.3666205000366,13.6607519445229,NaN,1,,,,
7,1,2,5120.jpg,13.6725153789819,14.1901732093877,15.4843064651193,NaN,1,,,,
8,1,2,9331.jpg,15.496070503327,16.0137289374813,16.9078528954869,NaN,1,,,,
9,1,2,9700.jpg,16.9196181411914,17.4372753678488,18.4372862353207,NaN,1,18.3550122289246,,,
10,1,2,8465.jpg,18.4490535941445,18.9667253107643,19.96671927328,NaN,1,,,,
11,1,2,9001.jpg,19.9784854246072,20.4961432550131,22.1902800728603,NaN,1,,,,
12,1,2,4561.jpg,22.2020441110681,22.7197140164426,24.9197515695951,NaN,1,,,,
13,1,2,4561.jpg,24.9314938728589,25.4491510995165,27.7432964302166,NaN,0,,,,
14,1,2,7234.jpg,27.7550592609275,28.2727192044529,29.6727348415372,1.15303785080027,0,,,,
15,1,2,4571.jpg,29.6844994834933,30.202168483245,32.2021790488427,NaN,1,,,,
16,1,2,9101.jpg,32.2139464076668,32.7316042380726,33.7316129924247,NaN,1,,,,
17,1,2,2720.jpg,33.743377936255,34.2610366722836,36.5552275859905,NaN,1,,,,
18,1,2,9000.jpg,36.5669478524367,37.0846156446917,37.7787277088532,NaN,1,,,,
19,1,2,1945.jpg,37.790492048935,38.3081495774666,40.6022958137894,NaN,1,39.1552907380765,,,
20,1,2,1945.jpg,40.6140613613682,41.1317197955225,41.3317178031527,0.682441606960992,1,,,,
21,1,2,4635.jpg,41.3434833507313,41.8611402755146,43.261155912599,NaN,1,,,,
22,1,2,4635.jpg,43.2729214601777,43.790577177464,44.4847049390849,0.623651301470318,1,,,,
23,1,2,9561.jpg,44.4964677697956,45.0141259020756,47.0141482407676,NaN,1,44.5083136159158,,,
24,1,2,9561.jpg,47.0259125808495,45.0141259020756,47.543567090639,NaN,0,,,,
25,1,2,9390.jpg,47.5553422981925,48.0729904686234,49.3671357993237,0.164751777888341,0,,,,
26,1,2,7700.jpg,49.3788865550657,49.8965658185409,50.7906752865842,NaN,1,,,,
27,1,2,2221.jpg,50.8024347966787,51.3200986645688,53.6142409765268,NaN,1,50.9319080442838,,,
28,1,2,9561.jpg,53.6260025997408,54.1436866932033,54.3436602490222,NaN,1,,,,
29,1,2,9101.jpg,54.3554224759844,54.8730899663651,55.873098116969,NaN,1,55.8261255832965,,,
30,1,2,7920.jpg,55.8848727207742,56.4025299474317,57.8025320001764,NaN,1,,,,
31,1,2,2490.jpg,-0.765541239338518,-0.247883710806946,1.04624894117637,NaN,1,,,58.5791043271254,
32,1,2,2490.jpg,1.05801297938388,1.57566779104764,2.37567491527898,NaN,0,,,,
33,1,2,5120.jpg,2.38744257597727,2.90510251950263,3.79922647750823,NaN,1,,,,
34,1,2,8465.jpg,3.81099111946446,4.32866585482634,6.72867877504291,NaN,1,,,,
35,1,2,8465.jpg,6.74044251137616,7.25811452987023,7.95222448091226,0.917776406598023,1,,,,
36,1,2,7700.jpg,7.96399002849103,8.48164725514835,10.7757904727291,NaN,1,,,,
37,1,2,9001.jpg,10.7875575296789,8.48164725514835,11.3052111338457,NaN,1,,,,
38,1,2,4561.jpg,11.3169839264056,11.8346366249498,13.2346507526631,NaN,1,,,,
39,1,2,4561.jpg,13.2464159983676,13.7640735268992,14.6582014092696,0.98835791897568,1,,,,
40,1,2,4320.jpg,14.6699690699679,15.1876362584744,16.8817576807367,NaN,1,,,,
41,1,2,9700.jpg,16.8935277564287,17.4111849830861,18.9053265101711,NaN,1,,,,
42,1,2,9331.jpg,18.9170833033975,19.4347381150612,20.9288739065362,NaN,1,,,,
43,1,2,1945.jpg,20.9406379447439,21.458296378898,23.5524388719807,NaN,1,,,,
44,1,2,2720.jpg,23.5642032120625,24.0818743249338,25.775995747196,NaN,1,,,,
45,1,2,2720.jpg,25.7877631060201,26.3054302945268,26.7054223854223,NaN,0,,,,
46,1,2,9360.jpg,26.7171912536173,27.2348439521616,29.5289910941069,0.211815779448216,0,,,,
47,1,2,9042.jpg,29.540759962302,30.058413868343,32.1525563614257,NaN,1,,,,
48,1,2,4571.jpg,32.164324323998,32.6819712869321,34.8820058213425,NaN,1,34.1173729215207,,,
49,1,2,9000.jpg,34.8937734820406,35.4114285955786,36.7055591344422,NaN,1,,,,
50,1,2,9390.jpg,36.7173231726497,37.2349994173828,37.6349833576746,NaN,1,,,,
51,1,2,4635.jpg,37.6467483015049,37.2349994173828,38.1644010000489,NaN,1,,,,
52,1,2,7234.jpg,38.1761668495019,38.693840377367,38.787940306185,NaN,1,,,,
53,1,2,9360.jpg,38.7997058537637,39.3173667029118,40.1173711102754,NaN,1,,,,
54,1,2,9331.jpg,40.1291351484829,40.6467950920082,42.2468099442196,NaN,1,,,,
55,1,2,7234.jpg,42.2585933023772,42.7762309072107,45.2703823961449,NaN,1,,,,
56,1,2,9561.jpg,45.2821588111954,45.7998100003683,45.893920494784,NaN,1,,,,
57,1,2,7700.jpg,45.9056854386142,46.4233444765171,46.7174623366634,NaN,1,,,,
58,1,2,9700.jpg,46.7292245636258,47.246888431516,48.4468954953727,NaN,1,,,,
59,1,2,9000.jpg,48.458660439203,48.9763463439108,50.0704477821,NaN,1,48.8116878451556,,,
60,1,2,9001.jpg,50.082223291528,50.5998877631664,51.2939934879694,NaN,1,,,,
61,1,2,9390.jpg,51.3057584317999,51.823462750835,52.6234224808145,NaN,1,,,,
62,1,2,9390.jpg,52.6351886321415,53.1528521981575,53.7528507491613,0.611863113325398,1,,,,
63,1,2,9101.jpg,53.7646319941994,54.2822747308944,56.1764122732397,NaN,1,55.8471007094649,,,
64,1,2,9101.jpg,56.1881778208185,56.7058368587211,57.3058402397123,NaN,0,,,,
65,1,2,4571.jpg,-1.8943702873662,-1.37670641947602,1.11743571135753,NaN,1,,,59.2118344956498,
66,1,2,2720.jpg,1.12920276830732,1.64685607059982,3.24687846966663,NaN,1,,,,
67,1,2,2720.jpg,3.2586416022516,3.77629943265765,5.17631325849675,0.870682519490629,1,,,,
68,1,2,4320.jpg,5.18807820232701,5.70573663648111,6.70574871144981,NaN,1,,,,
69,1,2,2490.jpg,6.71751425902858,7.23516937256636,9.72931874838105,NaN,1,,,,
70,1,2,4561.jpg,9.74108248471453,10.25874816385,11.3528722426054,NaN,1,,,,
71,1,2,1945.jpg,11.3646314508255,11.8822947149672,12.9764227180874,NaN,1,,,,
72,1,2,4635.jpg,12.9881858506724,13.5058491148143,15.3058655971463,NaN,1,,,,
73,1,2,9042.jpg,15.3176293334798,13.5058491148143,15.8352829376465,NaN,1,,,,
74,1,2,5120.jpg,15.8470536170869,16.3647168812288,17.1647116286174,NaN,1,,,,
75,1,2,8465.jpg,17.1764820061835,17.6941371197215,18.7882651228417,NaN,1,,,,
76,1,2,7920.jpg,18.800033085414,19.3176906139456,20.9177075792766,NaN,1,,,,
77,1,2,2221.jpg,20.9294743343521,21.4471276366448,22.2471353646247,NaN,1,,,,
78,1,2,2221.jpg,22.2589365333611,22.7765611576031,25.0707052808064,0.8353556893328,1,,,,
79,1,2,4635.jpg,25.0824684133913,25.6001310737847,26.2001314360336,NaN,1,,,,
80,1,2,1945.jpg,26.2118954742414,26.7295548140182,28.8236970052267,NaN,1,,,,
81,1,2,7700.jpg,28.8354610434342,29.3531255150729,31.0472590123038,NaN,1,,,,
82,1,2,9101.jpg,31.0590224467628,31.5766799752946,33.8708237966237,NaN,1,,,,
83,1,2,9390.jpg,33.8825884385797,34.4002498914761,35.8943832679574,NaN,1,,,,
84,1,2,9390.jpg,35.9061877573099,36.4238072496903,37.7179362791828,0.800059348470995,1,,,,
85,1,2,4320.jpg,37.7297012230131,38.2473614684127,39.7414939392713,NaN,1,37.7768491456054,,,
86,1,2,9360.jpg,39.7532658262085,40.2709176191302,41.5650469504967,NaN,1,,,,
87,1,2,9331.jpg,41.576816120566,42.0944727434751,42.3885878867536,NaN,1,,,,
88,1,2,4571.jpg,42.4003537362066,42.918026358449,43.8121457883415,NaN,1,,,,
89,1,2,5120.jpg,43.8239010721968,44.341564940087,46.8357070709205,NaN,1,,,,
90,1,2,4561.jpg,46.8474735241218,47.3651331657729,47.6592489128,NaN,1,,,,
91,1,2,9042.jpg,47.6710132528817,48.2004456870927,49.5886861166236,NaN,1,48.1769511187156,,,
92,1,2,2720.jpg,49.6004519660764,50.1181146264698,51.0122352638591,NaN,1,,,,
93,1,2,9001.jpg,51.0240044339284,51.541660453089,51.6357727587499,NaN,1,,,,
94,1,2,2490.jpg,51.6475349857121,52.1652000610993,52.2593114611375,NaN,1,,,,
95,1,2,8465.jpg,52.271076706842,52.7887354428706,54.4828722607178,NaN,1,53.224115946264,,,
96,1,2,9700.jpg,54.4946405251644,52.7887354428706,55.0122896012181,NaN,1,,,,
97,1,2,7920.jpg,55.0240548469226,55.5417319972782,56.7417251749209,NaN,1,,,,
98,1,2,7234.jpg,56.753494043116,57.271149156654,58.2711579110062,NaN,1,,,,
99,1,2,9000.jpg,-0.753642263356369,-0.235985942321577,0.458136687437445,NaN,1,,,58.8830137793504,0.152780955842445
100,1,2,9561.jpg,0.469903140638962,0.987560065422031,1.58756314453899,NaN,1,,,,
101,1,2,2490.jpg,1.59932808836925,2.11698742814633,2.61110359779718,NaN,1,,,,
102,1,2,9101.jpg,2.6228694472502,3.14053090014659,4.83466922736488,NaN,1,,,,
103,1,2,9000.jpg,4.84643024683032,5.36410347282117,6.164097012713,NaN,1,,,,
104,1,2,9001.jpg,6.17586105092073,6.69352522068516,7.78764869569204,NaN,1,,,,
105,1,2,9001.jpg,7.79941333764805,8.3170814317773,9.31708052615454,0.764808288741506,1,,,,
106,1,2,8465.jpg,9.32884486623652,9.84650420601338,10.0465028173919,NaN,1,,,,
107,1,2,4635.jpg,10.0582659499769,10.5759261953765,13.0700785899335,NaN,1,,,,
108,1,2,7920.jpg,13.0818371944051,13.5994962323077,15.1995138013872,NaN,1,,,,
109,1,2,7234.jpg,15.2112781414689,15.7289492543405,16.728950159963,NaN,1,,,,
110,1,2,9700.jpg,16.7407075569379,17.2583753491929,19.7525271400013,NaN,1,,,,
111,1,2,9042.jpg,19.7643056681713,20.2819456879984,22.0819609628338,NaN,1,,,,
112,1,2,9360.jpg,22.0937271141609,22.6113861520637,24.8114086115054,NaN,1,,,,
113,1,2,4571.jpg,24.8231762722035,25.3408386307226,26.2349577587408,NaN,1,,,,
114,1,2,9561.jpg,26.2467245138164,26.7643950229394,28.8585239316822,NaN,1,,,,
115,1,2,2221.jpg,28.8702918942545,29.3879473096667,31.587973391599,NaN,1,,,,
116,1,2,9331.jpg,31.5997377316808,32.1174012976967,32.5173994260767,NaN,1,,,,
117,1,2,4320.jpg,32.5291628605357,33.0468228040611,33.7409707912545,NaN,1,,,,
118,1,2,7700.jpg,33.7527109813991,34.2703679061822,36.4703930824919,NaN,1,,,,
119,1,2,1945.jpg,36.4821628563095,36.999817366099,38.0939483879613,NaN,1,37.3175538649257,,,
120,1,2,1945.jpg,38.1057130299175,38.6233741809397,40.7175091271668,NaN,0,,,,
121,1,2,2720.jpg,40.7292810141041,41.2469382407614,41.541082665839,NaN,1,,,,
122,1,2,5120.jpg,41.5528159128767,42.0704852145027,43.8705249411496,NaN,1,,,,
123,1,2,4561.jpg,43.8822910924766,44.3999220560772,46.8940641869108,NaN,1,,,,
124,1,2,9390.jpg,46.9175940745713,47.4352534143482,49.7294087068976,NaN,1,48.023599016856,,,
125,1,2,9390.jpg,49.7411606701364,50.2588248399009,50.8588342583764,0.882504215673407,1,,,,
126,1,2,9331.jpg,50.8705961834646,51.3882772581851,52.482375677632,NaN,1,,,,
127,1,2,9000.jpg,52.4941406214623,53.0118056968493,53.1059134743971,NaN,1,,,,
128,1,2,9000.jpg,53.1176805313469,53.6353380598785,53.9294550144023,NaN,0,,,,
129,1,2,2221.jpg,53.9412166376162,54.4588795998836,56.8589058025657,0.200054156234501,0,54.9060582532711,,,
130,1,2,9360.jpg,-1.24729294296571,-0.729635112559663,0.564572102354759,NaN,1,,,57.9649053111145,0.152766164005925
131,1,2,1945.jpg,0.576312292499324,1.09392967176018,1.89392472102304,NaN,1,,,,
132,1,2,9101.jpg,1.9056954004634,2.42334719338487,4.91749536170278,NaN,1,,,,
133,1,2,9101.jpg,4.92931041665292,5.4469208528069,5.64691825668865,NaN,0,,,,
134,1,2,9001.jpg,5.65870765233035,6.17634012530198,6.87046517005479,NaN,1,,,,
135,1,2,9001.jpg,6.88222860451401,7.39989337802695,9.49404039922274,0.7648019493829,1,,,,
136,1,2,4561.jpg,9.505805343053,10.0234544191064,12.0234728334337,NaN,1,,,,
137,1,2,4561.jpg,12.035240494132,12.5529007395314,13.9529139616222,0.658921077401146,1,,,,
138,1,2,2720.jpg,13.9646795092008,14.4823418677199,15.5764677577206,NaN,1,,,,
139,1,2,8465.jpg,15.5882342109219,16.1058911357052,17.4000213726945,NaN,1,,,,
140,1,2,8465.jpg,17.4117839015312,17.9294486750439,20.0235902625038,NaN,0,,,,
141,1,2,8465.jpg,20.0353693944223,20.5530127348657,20.753016478106,NaN,0,,,,
142,1,2,9700.jpg,20.7647735732066,21.2824365354743,21.7765496863829,0.0353856956298841,0,,,,
143,1,2,2490.jpg,21.7883200639492,22.305975177487,23.9060123683905,NaN,1,,,,
144,1,2,5120.jpg,23.9177546716544,24.4354478213436,25.3295382713113,NaN,1,,,,
145,1,2,4320.jpg,25.3413035170158,25.8589767430067,27.3530971388966,NaN,1,,,,
146,1,2,9561.jpg,27.3648663089659,25.8589767430067,27.8825144793968,NaN,1,,,,
147,1,2,4635.jpg,27.8942842532147,28.4119559698345,28.6119422043701,NaN,1,,,,
148,1,2,4635.jpg,28.6236989975966,29.1413613561156,30.5413760875774,NaN,0,,,,
149,1,2,7234.jpg,30.5531446538982,31.070798258065,33.0708212005056,NaN,1,,,,
150,1,2,9042.jpg,33.082590672449,33.6002475972323,34.0002457256121,NaN,1,,,,
151,1,2,9390.jpg,34.0120112731909,34.5296712167162,35.3297215089606,NaN,1,,,,
152,1,2,7920.jpg,35.3414607934824,35.8590971908191,37.7532612980954,NaN,1,,,,
153,1,2,7920.jpg,37.765002997611,38.2827106372627,39.5767931781259,1.23539789134838,1,,,,
154,1,2,4571.jpg,39.588562348195,40.1062168579845,42.1062404041734,NaN,1,,,,
155,1,2,7700.jpg,42.1180074611232,40.1062168579845,42.6356571409251,NaN,1,,,,
156,1,2,2221.jpg,42.6474223866296,43.1650968201175,43.8592028467947,NaN,1,42.823941825216,,,
157,1,2,9390.jpg,43.870969299996,44.3886289416471,44.6827440849258,NaN,1,,,,
158,1,2,9390.jpg,44.6945087268819,45.2121662554134,45.6121710250261,0.423585070267109,1,,,,
159,1,2,8465.jpg,45.6239302332463,46.1415989311238,48.4357376205912,NaN,1,,,,
160,1,2,4320.jpg,48.4474998475537,48.965172469796,51.3651884087546,NaN,1,,,,
161,1,2,9042.jpg,51.3769708612895,51.8946132961103,54.1887577211878,NaN,1,,,,
162,1,2,9101.jpg,54.2005208537728,54.7181810991724,56.0123104305392,NaN,1,,,,
163,1,2,9101.jpg,-1.48262653510574,-0.964965384083598,1.12918495772851,NaN,0,,,57.3535910051144,0.15277884272291
164,1,2,9101.jpg,1.14094688281671,1.65861044883263,2.05860495472189,NaN,0,,,,
165,1,2,9101.jpg,2.07036567231307,2.58802772895797,5.08217046354002,0.835400064842588,1,,,,
166,1,2,9101.jpg,5.09393389799925,5.61159535089564,6.10571846365337,NaN,0,,,,
167,1,2,9360.jpg,6.11747948311904,6.63514486038025,8.9293369815839,NaN,1,,,,
168,1,2,9700.jpg,8.94107234174089,9.45871145594538,10.8587201499229,NaN,1,,,,
169,1,2,7920.jpg,10.8704850937531,11.3881553010019,12.7881600706144,NaN,1,,,,
170,1,2,9001.jpg,12.7999259200674,13.3176009573035,14.8117500312439,NaN,1,,,,
171,1,2,9000.jpg,14.8235001832377,15.3411377880711,16.2352858960141,NaN,1,,,,
172,1,2,1945.jpg,16.247053254838,16.7646884446776,19.0588319641327,NaN,1,,,,
173,1,2,9561.jpg,19.0705975117112,19.5882568514883,20.4823808094939,NaN,1,,,,
174,1,2,9561.jpg,20.4941457533241,21.011806300598,21.905929352981,0.764800440011868,1,,,,
175,1,2,2490.jpg,21.9176936930628,22.4353629946888,22.729471798609,NaN,1,,,,
176,1,2,5120.jpg,22.7412343274455,23.258893063474,23.7530131574897,NaN,1,,,,
177,1,2,7234.jpg,23.7648019493829,24.2824507235623,26.1765749834422,NaN,1,,,,
178,1,2,7700.jpg,26.1883399272724,26.7060037951626,28.6001371112691,NaN,1,,,,
179,1,2,2720.jpg,28.6119065832127,29.1295912804237,31.6237098650683,NaN,1,,,,
180,1,2,4571.jpg,31.6354717901563,32.1531435067761,34.6472783926286,NaN,1,,,,
181,1,2,9331.jpg,34.6590466570751,35.1767038837327,35.6708203552578,NaN,1,,,,
182,1,2,4635.jpg,35.6825901290754,36.2002597325757,37.2002539969656,NaN,1,,,,
183,1,2,4561.jpg,37.2120234689091,37.729681299315,39.5296968760244,NaN,1,,,,
184,1,2,4561.jpg,39.5414618198547,40.0591253858709,40.4591229105022,0.835404592955911,1,,,,
185,1,2,4571.jpg,40.4708851374646,40.9885499109773,41.9885544390906,NaN,1,,,,
186,1,2,9700.jpg,42.0003160623044,42.5179747983329,44.7180011821395,NaN,1,,,,
187,1,2,9700.jpg,44.7297673334665,45.2474336163505,45.9415511142479,NaN,0,,,,
188,1,2,2490.jpg,45.9533142468329,46.4709723791129,48.0709896463181,NaN,1,46.0358258282372,,,
189,1,2,1945.jpg,48.0827799475826,48.6004178542903,50.4004938058431,NaN,1,,,,
190,1,2,4561.jpg,50.4122376184782,50.9298589221039,51.2239900647157,NaN,1,,,,
191,1,2,7700.jpg,51.2357378017157,51.7534028771029,51.9533972622423,NaN,1,,,,
192,1,2,5120.jpg,51.9651613004501,52.4828318095729,54.9769657898025,NaN,1,52.9181935967649,,,
193,1,2,7920.jpg,54.9887304317588,55.5063903752841,57.4005276157552,NaN,1,,,,
194,1,2,9331.jpg,-2.08266251851228,-1.5650043862322,0.529138408724521,NaN,1,,,59.3418191181772,0.152786389578523
195,1,2,9042.jpg,0.540926898743692,1.05856148483485,3.25858786864137,NaN,1,,,,
196,1,2,2720.jpg,3.27035039747784,3.78801335974549,4.58805157702113,NaN,1,,,,
197,1,2,7234.jpg,4.59983704829824,5.11745231443956,7.51747398900829,NaN,1,,,,
198,1,2,9101.jpg,7.52923621597051,8.04689253700531,10.3410357545861,NaN,1,,,,
199,1,2,8465.jpg,10.3528034152841,10.8704591325707,12.8704829806336,NaN,1,,,,
200,1,2,9000.jpg,12.8822500375834,13.3999057548697,15.4940461348328,NaN,1,,,,
201,1,2,2221.jpg,15.5058125880341,16.0234664940751,17.4234806217885,NaN,1,,,,
202,1,2,9001.jpg,17.4352534143484,17.9529106410059,20.0470501153461,NaN,1,,,,
203,1,2,4320.jpg,20.0588183797929,20.5764843608026,21.4706306575001,NaN,1,,,,
204,1,2,9360.jpg,21.4823796019971,22.0000214330694,23.2941525756814,NaN,1,,,,
205,1,2,9561.jpg,23.3059335188452,23.8236028204713,23.9176900705722,NaN,1,,,,
206,1,2,4635.jpg,23.9294541087797,24.4471203916637,26.2471377796187,NaN,1,,,,
207,1,2,4635.jpg,26.2588991009584,26.7765584407352,29.2707343814809,0.505953261418654,1,,,,
208,1,2,9390.jpg,29.2824787978645,29.8001245533017,31.2942603447766,NaN,1,,,,
209,1,2,4320.jpg,31.3060249867326,31.8236973071009,34.0237122196872,NaN,1,,,,
210,1,2,9042.jpg,34.0354732391527,34.5531488801373,35.047253578568,NaN,1,,,,
211,1,2,9042.jpg,35.0590179186497,35.5766814846659,37.4708151026464,1.34128298956921,1,,,,
212,1,2,2221.jpg,37.4825791408539,38.0002436124926,39.0943658800027,NaN,1,,,,
213,1,2,4561.jpg,39.1061332388267,39.6237949935974,39.8238277167623,NaN,1,,,,
214,1,2,9101.jpg,39.8355929624668,39.6237949935974,40.3532055117403,NaN,1,,,,
215,1,2,4571.jpg,40.3649755874321,39.6237949935974,40.88262496536,NaN,1,,,,
216,1,2,5120.jpg,40.8943887016935,41.4120492489672,42.1061878780597,NaN,1,41.9062665464805,,,
217,1,2,9360.jpg,42.1179383319277,42.6356097466733,44.4356156634078,NaN,1,,,,
218,1,2,4635.jpg,44.4473911728358,44.9650610782103,45.3650685646908,NaN,1,,,,
219,1,2,9700.jpg,45.3768093585838,45.8944750377193,46.6944700869822,NaN,1,,,,
220,1,2,1945.jpg,46.7062380495545,47.2238928612182,48.9180299809398,NaN,1,,,,
221,1,2,9331.jpg,48.929792207902,49.4474521514273,50.9415864335313,NaN,1,,,,
222,1,2,7234.jpg,50.9533498679905,49.4474521514273,51.471002868409,NaN,1,,,,
223,1,2,7920.jpg,51.4827735478493,52.0004289632614,52.2004342158727,NaN,1,,,,
224,1,2,8465.jpg,52.2121958390867,52.72986423509,52.8239653714049,NaN,1,52.4593034312836,,,
225,1,2,9001.jpg,52.8357315227322,53.3533899568863,54.2475145186404,NaN,1,,,,
226,1,2,9001.jpg,54.2592794624707,54.7769478584742,54.9769368098778,NaN,0,,,,
227,1,2,9000.jpg,54.9886999424627,55.5063532447555,58.0005062430607,NaN,1,,,,
228,1,2,9561.jpg,-0.564920163326178,-0.0472529748194574,1.24687243218227,NaN,1,,,58.577068487411,
229,1,2,2720.jpg,1.25863526289322,1.7763266013369,2.87042351141281,NaN,1,,,,
230,1,2,2490.jpg,2.88219177585961,3.39985775686932,4.59985787761889,NaN,1,,,,
231,1,2,9390.jpg,4.61162161395237,5.12928970808161,5.52928210085133,NaN,1,,,,
232,1,2,7700.jpg,5.54105127092066,6.05870517696167,6.65871731230504,NaN,1,,,,
233,1,2,4571.jpg,6.67047953926749,7.18814521840295,9.48227787038604,NaN,1,,,,
234,1,2,9561.jpg,9.49404160671929,10.0117033614902,12.1058440433274,NaN,1,,,,
235,1,2,1945.jpg,12.1176095909061,12.6352634969471,12.9294052051566,NaN,1,,,,
236,1,2,7700.jpg,12.9411701489869,13.4588059425751,15.5529469262865,NaN,1,,,,
237,1,2,9331.jpg,15.5647118701168,16.0823733230131,17.8823916165907,NaN,1,,,,
238,1,2,5120.jpg,17.8941553529241,18.411815900198,18.8118155379489,NaN,1,,,,
239,1,2,8465.jpg,18.8235940661189,19.3412389159334,19.4353533347139,NaN,1,,,,
240,1,2,7234.jpg,19.4471182785442,19.9647800333148,20.4588943917204,NaN,1,,,,
241,1,2,9390.jpg,20.4706614486702,20.9883313540447,22.3883343124119,NaN,1,,,,
242,1,2,9001.jpg,22.4000992562421,22.9177688597426,23.4118934818714,NaN,1,,,,
243,1,2,9700.jpg,23.4236409169971,22.9177688597426,23.9413126336169,NaN,1,,,,
244,1,2,9000.jpg,23.9530682193465,24.4707206160165,26.0707553919262,NaN,1,,,,
245,1,2,9000.jpg,26.0825103739073,26.6001636762001,27.0942831664672,0.682437380721922,1,,,,
246,1,2,2490.jpg,27.1060444878069,27.6237050350808,28.5178292949606,NaN,1,,,,
247,1,2,4320.jpg,28.5295945406651,29.047253880442,30.6472702420247,NaN,1,,,,
248,1,2,2221.jpg,30.6590608451631,31.1767053931035,33.1767238074308,NaN,1,,,,
249,1,2,7920.jpg,33.1884802987829,33.7061652978682,34.9061479099134,NaN,1,,,,
250,1,2,9101.jpg,34.9179179856053,35.4355960415837,37.5297177053453,NaN,1,,,,
251,1,2,9042.jpg,37.5414847622951,38.0591398758331,39.7533174466996,NaN,1,,,,
252,1,2,4561.jpg,39.7650745418002,40.282700373539,41.5768321198996,NaN,1,,,,
253,1,2,4561.jpg,41.5885934412393,40.282700373539,42.1062542903871,0.470643034343084,1,,,,
254,1,2,9360.jpg,42.1180213473369,42.6356716308874,43.0356794192423,NaN,1,,,,
255,1,2,4635.jpg,43.047439533085,43.5651024953527,43.9651380561352,NaN,1,,,,
256,1,2,2720.jpg,43.9769017924687,44.4945206811005,46.3886600346914,NaN,1,,,,
257,1,2,4320.jpg,46.4004234691504,46.9180888464118,49.2122275358793,NaN,1,,,,
258,1,2,7920.jpg,49.2239924797095,49.741656951348,49.9416501289909,NaN,1,,,,
259,1,2,9000.jpg,49.9534531089723,50.4710756200948,51.6710829858257,NaN,1,,,,
260,1,2,9000.jpg,51.6828485334045,52.2005148162884,54.200531117496,NaN,0,,,,
261,1,2,4571.jpg,54.212294250081,54.7299557029774,56.2241017581757,NaN,1,,,,
262,1,2,9042.jpg,56.2358510045467,56.7535435504874,59.1535827337607,NaN,1,,,,
263,1,2,9360.jpg,59.1653368101192,59.6829665662231,61.0829764676973,NaN,1,,,,
264,1,2,9101.jpg,61.0947411096533,61.612404373795,63.106583333283,NaN,1,,,,
265,1,2,4635.jpg,63.1183461639937,63.6359578076444,63.7418359627584,NaN,1,,,,
266,1,2,4635.jpg,63.7536000009659,64.2712602463655,66.471286630172,NaN,0,,,,
267,1,2,8465.jpg,66.4830488571342,67.0007103100309,68.0007371768361,NaN,1,,,,
268,1,2,4561.jpg,68.012482196968,68.5301406311223,70.4242935690527,NaN,1,,,,
269,1,2,9561.jpg,70.4360467397885,70.9537145320435,72.3537458665871,NaN,1,,,,
270,1,2,1945.jpg,72.3655298284932,70.9537145320435,72.8831342271626,NaN,1,,,,
271,1,2,7234.jpg,72.8948991709929,73.412560020141,74.706689653382,NaN,1,,,,
272,1,2,7700.jpg,74.7184582197028,75.2361127294923,75.6361141784885,NaN,1,,,,
273,1,2,7700.jpg,75.6478764054509,76.165548725819,78.1655601970392,NaN,0,,,,
274,1,2,9390.jpg,78.1773290652343,78.6949844806466,79.894995468868,NaN,1,,,,
275,1,2,2490.jpg,-1.45932909059184,-0.941662807707871,0.0583435316505074,NaN,1,80.2952139654258,80.448023901193,81.3656994818027,
276,1,2,2490.jpg,0.0701081736067408,0.58776932462888,1.88189624100187,NaN,0,,,,
277,1,2,2490.jpg,1.8936566567188,2.41132022273496,3.81133585981934,NaN,0,,,,
278,1,2,9001.jpg,3.82310382239166,4.34079063272225,4.94077499563787,NaN,1,,,,
279,1,2,9331.jpg,4.95253933571985,5.47018388366018,6.36436972588012,NaN,1,,,,
280,1,2,9331.jpg,6.37608606796152,6.89373755900874,7.98786043026735,0.505925488990897,1,,,,
281,1,2,9331.jpg,7.99962627972036,8.51729044948456,10.8114315539458,NaN,0,,,,
282,1,2,2720.jpg,10.8232263833236,11.3408528188108,13.7408814364865,NaN,1,,,,
283,1,2,9700.jpg,13.7526503046815,11.3408528188108,14.2702984751127,NaN,1,,,,
284,1,2,2221.jpg,14.2820676451818,14.799723060594,15.1997248114644,NaN,1,,,,
285,1,2,5120.jpg,15.2114918684142,15.7291475857005,17.5291676905233,NaN,1,,,,
286,1,2,4571.jpg,17.5409422943285,18.0585913703821,20.552736821832,NaN,1,,,,
287,1,2,1945.jpg,20.5644993506685,21.0821897834899,23.3763049267684,NaN,1,,,,
288,1,2,4320.jpg,23.3880725874665,23.9057301159983,24.7998528665071,NaN,1,,,,
289,1,2,4561.jpg,24.8116163009661,25.3292828857243,27.2234146924595,NaN,1,,,,
290,1,2,4635.jpg,27.2351796362898,27.7528652391236,28.752847730419,NaN,1,,,,
291,1,2,2221.jpg,28.7646117686268,29.2822729196489,30.3763985077753,NaN,1,,,,
292,1,2,7700.jpg,30.3881767340711,30.9058315457348,32.5999605148525,NaN,1,,,,
293,1,2,9101.jpg,32.6117212324436,33.1293866097051,33.7294201781178,NaN,1,,,,
294,1,2,2720.jpg,33.7411833107028,34.2588148780519,35.1529340060702,NaN,1,,,,
295,1,2,7920.jpg,35.1647034780135,35.682357987803,37.2823770662535,NaN,1,36.2471761176439,,,
296,1,2,9042.jpg,37.2941377838447,37.811808594842,39.6118172284446,NaN,1,,,,
297,1,2,7234.jpg,39.6235821722748,40.1412463420393,40.4353578628272,NaN,1,,,,
298,1,2,9390.jpg,40.4471179766699,40.9647866745477,42.3647962741477,NaN,1,,,,
299,1,2,9561.jpg,42.3765600104812,42.89421663339,44.988360937718,NaN,1,,,,
300,1,2,2490.jpg,45.0001352396489,45.5177840138283,47.4119221599221,NaN,1,46.9531814221777,,,
301,1,2,5120.jpg,47.4236880093749,47.9413630466113,48.4354668394192,NaN,1,,,,
302,1,2,9001.jpg,48.4472332926205,48.9648926323976,49.2590065681793,NaN,1,,,,
303,1,2,9700.jpg,49.2707706063868,49.7884308517864,50.5884370703952,NaN,1,,,,
304,1,2,9000.jpg,50.6002038254708,51.117869202732,53.317885020941,NaN,1,,,,
305,1,2,9331.jpg,53.3296484554003,53.8473201720201,55.5414415942823,NaN,1,55.5180064951255,,,
306,1,2,9360.jpg,55.5649729913139,56.082634142336,58.5767780844149,NaN,1,,,,
307,1,2,8465.jpg,-0.447421964005571,0.0702455263751745,0.470233692905822,NaN,1,,,59.0358209982496,
308,1,2,4635.jpg,0.481997731113552,0.999662504626258,2.49381067294416,NaN,1,,,,
309,1,2,5120.jpg,2.50556173056043,3.02321624034994,3.22321183298641,NaN,1,,,,
310,1,2,9331.jpg,3.23497587119391,3.75263581471927,5.64677365893908,NaN,1,,,,
311,1,2,4571.jpg,5.65853437653027,6.17619824442045,7.57620905151725,NaN,1,,,,
312,1,2,9042.jpg,7.58797369347349,8.1056448063448,8.5997549385113,NaN,1,,,,
313,1,2,2720.jpg,8.61151837297052,9.1291816371122,10.7292306011102,NaN,1,,,,
314,1,2,4561.jpg,10.7409952430662,11.2586216785535,13.2586582053336,NaN,1,,,,
315,1,2,8465.jpg,13.2704047348368,13.7880637727394,14.0821804253892,NaN,1,,,,
316,1,2,4320.jpg,14.0939441617224,14.6116101427322,15.6116143689712,NaN,1,,,,
317,1,2,4320.jpg,15.6233989346256,16.1410458975597,16.8351585654696,1.04713584762362,1,,,,
318,1,2,2490.jpg,16.8469226036773,17.3645937165486,19.4587183990525,NaN,1,,,,
319,1,2,7700.jpg,19.4704878709958,19.9881475126472,20.9881577763704,NaN,1,20.0352999633526,,,
320,1,2,1945.jpg,20.9999239276976,21.5175778337386,21.917579584609,NaN,1,,,,
321,1,2,2221.jpg,21.9293448303135,22.4470008494741,22.7411202189917,NaN,1,,,,
322,1,2,9101.jpg,22.7528854646962,23.2705423894795,23.4705422083548,NaN,1,,,,
323,1,2,7234.jpg,23.4823062465625,23.9999637750941,26.1999901589006,NaN,1,,,,
324,1,2,9001.jpg,26.2117952520016,26.7294168575015,27.9294248269809,NaN,1,,,,
325,1,2,9001.jpg,27.9411888651885,28.4588566574434,30.0588639627995,NaN,0,,,,
326,1,2,9561.jpg,30.0706295103782,30.5882885482808,32.4824269962489,NaN,1,,,,
327,1,2,9390.jpg,32.4941922419534,33.0118503742335,35.5059943163124,NaN,1,,,,
328,1,2,9390.jpg,35.5177610713879,36.0354210149133,37.6354449233511,NaN,0,,,,
329,1,2,7920.jpg,37.6472159046657,38.164858943235,39.5648775990617,NaN,1,,,,
330,1,2,7920.jpg,39.5766398260239,40.0943024864173,41.0943085239016,0.494174431374631,1,,,,
331,1,2,9360.jpg,41.1060704489896,41.6237946917231,43.0237475389706,NaN,1,42.2122030840678,,,
332,1,2,9700.jpg,43.0355118790524,43.5531787656846,45.6473097875471,NaN,1,,,,
333,1,2,9000.jpg,45.6590711088868,46.1767536929783,48.2708756586142,NaN,1,,,,
334,1,2,7700.jpg,48.2826403005702,48.8002990365987,48.8944143610017,NaN,1,,,,
335,1,2,9561.jpg,48.9061765879642,49.4238365314895,50.6238909895981,NaN,1,,,,
336,1,2,9561.jpg,50.6356363116042,51.1532708976956,52.7532881649006,0.905954408540993,1,,,,
337,1,2,9331.jpg,52.7650540143536,53.2827112410109,53.6827169162464,NaN,1,,,,
338,1,2,2720.jpg,53.6945054062655,54.2121351623691,55.1062609316202,NaN,1,,,,
339,1,2,9101.jpg,55.1180255735762,55.6356876302211,57.7298258970645,NaN,1,55.2122157627848,,,
340,1,2,7920.jpg,-2.67090306879277,-2.15318003355628,0.0467977485013762,NaN,1,,,60.4123559531708,
341,1,2,2221.jpg,0.0585560510990035,0.57620724027197,2.37622493010099,NaN,1,,,,
342,1,2,4635.jpg,2.38803002320219,2.90564951558258,4.79978585043114,NaN,1,,,,
343,1,2,9001.jpg,4.81154928489013,5.32921526589985,5.92921381690371,NaN,1,,,,
344,1,2,8465.jpg,5.94097876073397,6.45864685486322,6.8586371345134,NaN,1,,,,
345,1,2,4320.jpg,6.87040328584044,7.38806654998234,8.58807451946154,NaN,1,,,,
346,1,2,7234.jpg,8.59983704829801,9.11749759557188,11.5175367788452,NaN,1,,,,
347,1,2,4571.jpg,11.5292917608263,12.0469631755718,13.3410792244731,NaN,1,,,,
348,1,2,9390.jpg,13.3528429608066,13.8705047155772,15.0705135906792,NaN,1,,,,
349,1,2,2490.jpg,15.0822782326352,15.5999351574185,17.9999631713456,NaN,1,,,,
350,1,2,9700.jpg,18.0117450201321,18.5293865493302,20.4235249972983,NaN,1,,,,
351,1,2,9000.jpg,20.4352902430028,20.9529607521258,22.5529731893434,NaN,1,,,,
352,1,2,4561.jpg,22.5647354163057,20.9529607521258,23.0823823792398,NaN,1,,,,
353,1,2,5120.jpg,23.0941503418123,23.6118102853377,24.1059285681081,NaN,1,,,,
354,1,2,5120.jpg,24.1176901913218,24.6353549648347,24.7294666667472,NaN,0,,,,
355,1,2,9360.jpg,24.7412310068291,25.2589018178262,27.2589114778011,0.0353672813025696,0,,,,
356,1,2,9042.jpg,27.2706803459962,27.7883436101379,30.1883634734613,NaN,1,,,,
357,1,2,1945.jpg,30.2119021154742,30.7295511915279,32.7295729264713,NaN,1,31.5061171791183,,,
358,1,2,9561.jpg,32.7413381721758,33.2589996250722,34.85901206229,NaN,1,,,,
359,1,2,9042.jpg,34.8708035710513,35.3884426852558,37.788463756076,NaN,1,,,,
360,1,2,2490.jpg,37.8002302092773,38.3178992090293,40.8120392267433,NaN,1,,,,
361,1,2,4320.jpg,40.8237987368375,41.341468642212,42.5414850641694,NaN,1,,,,
362,1,2,2720.jpg,42.5532331030436,43.0708993859275,44.4709095892761,NaN,1,,,,
363,1,2,9000.jpg,44.4826742312321,45.0003326653864,47.0003525890847,NaN,1,,,,
364,1,2,4635.jpg,47.0121166272922,47.5297789858114,49.3297966756404,NaN,1,,,,
365,1,2,9001.jpg,49.3415598082254,49.8592182423797,52.0592410036957,NaN,1,,,,
366,1,2,9331.jpg,52.0827705894819,52.6004356648689,53.8945643924872,NaN,1,53.2240945131946,,,
367,1,2,9331.jpg,53.9063299400659,54.4239904873398,55.1181170414636,NaN,0,,,,
368,1,2,9390.jpg,55.1298729290675,55.6475521925427,57.5416809805358,NaN,1,,,,
369,1,2,9700.jpg,57.5534344531459,58.071166544609,58.765216422682,NaN,1,,,,
370,1,2,2221.jpg,-0.106043582184384,0.411613342598685,1.10573717985471,NaN,1,,,58.8829380089223,
371,1,2,4561.jpg,1.11750061431394,1.63515602972598,2.63516689719791,NaN,1,,,,
372,1,2,5120.jpg,2.64693063353116,3.16459480329559,3.65870885982713,NaN,1,,,,
373,1,2,7920.jpg,3.6704879917454,4.18813253968574,6.58816085548733,NaN,1,,,,
374,1,2,7700.jpg,6.59992972368241,4.18813253968574,7.11757910161009,NaN,1,,,,
375,1,2,7700.jpg,7.12934223419506,7.64700308334318,9.24702276554194,NaN,0,,,,
376,1,2,4571.jpg,9.27055355882521,9.78820776674047,9.988206378119,NaN,1,,,,
377,1,2,1945.jpg,9.99998128379843,10.5176306617263,11.4117552234804,NaN,1,,,,
378,1,2,9360.jpg,11.4235180541912,10.5176306617263,11.9411734696032,NaN,1,,,,
379,1,2,7234.jpg,11.95294173405,12.470597149462,14.0706135110445,NaN,1,,,,
380,1,2,9101.jpg,14.082381473617,14.6000387002744,15.0941578886675,NaN,1,,,,
381,1,2,8465.jpg,15.1059255493658,15.6235969641114,16.0235806025287,NaN,1,,,,
382,1,2,9360.jpg,16.0353772431517,16.5530051880103,16.647162171055,NaN,1,,,,
383,1,2,2490.jpg,16.6589065874387,17.1765411735298,18.4706732217646,NaN,1,,,,
384,1,2,4561.jpg,18.4824363543496,17.1765411735298,19.0000899585164,NaN,1,,,,
385,1,2,4561.jpg,19.0118542985981,19.5295184683625,22.0236612029446,0.564804545501374,1,,,,
386,1,2,7234.jpg,22.0354252411521,22.5530848828032,22.8472108935537,NaN,1,,,,
387,1,2,7234.jpg,22.858966177409,23.3766279321796,24.7766360224086,0.541284317815553,1,,,,
388,1,2,1945.jpg,24.7884030793584,25.3060681547454,27.400204912218,NaN,1,26.6120457472261,,,
389,1,2,9000.jpg,27.4119689504255,27.9296391576743,28.9296367426805,NaN,1,,,,
390,1,2,9001.jpg,28.9414007808882,29.4590601206651,29.7531767733146,NaN,1,,,,
391,1,2,7700.jpg,29.7649408115224,30.2826004531735,31.1767235055565,NaN,1,,,,
392,1,2,4320.jpg,31.1884908643806,31.7061532228995,32.6002744640373,NaN,1,,,,
393,1,2,4320.jpg,32.6120382003708,33.1297032757577,35.3297350933001,1.18834083289516,1,,,,
394,1,2,4571.jpg,35.3414870565391,35.8591497169325,37.6591655955162,NaN,1,,,,
395,1,2,4571.jpg,37.670928426227,38.1885998409725,38.5885886112517,NaN,0,,,,
396,1,2,2720.jpg,38.6003532532077,39.1180147061043,40.6121465732144,NaN,1,,,,
397,1,2,4635.jpg,40.623912120793,41.141570253073,43.235710331162,NaN,1,,,,
398,1,2,2221.jpg,43.2474755768665,43.7651376335114,45.6592730627372,NaN,1,45.424071993378,,,
399,1,2,7920.jpg,45.6710395159384,46.188696742596,46.6828150253664,NaN,1,,,,
400,1,2,7920.jpg,46.6945799691966,47.2122498745712,49.2122592326718,1.63541564155207,1,,,,
401,1,2,9700.jpg,49.2240262896216,47.2122498745712,49.7417290992857,NaN,1,,,,
402,1,2,5120.jpg,49.7534547994678,50.2711162523644,51.9652391839977,NaN,1,,,,
403,1,2,9561.jpg,51.9770059390733,52.4946646751018,53.1887851917413,NaN,1,,,,
404,1,2,9042.jpg,53.212322324383,53.7299738154304,55.6241125652728,NaN,1,54.6006566367951,,,
405,1,2,9390.jpg,55.6476412454363,56.1652999814648,56.9653068038222,NaN,1,,,,
406,1,2,9390.jpg,-1.14136588422866,-0.623706846326058,0.17629997603126,0.682445833199836,1,,,58.1183497864843,
407,1,2,8465.jpg,0.18806250486773,0.705723655890097,0.905722871017133,NaN,1,,,,
408,1,2,9101.jpg,0.917486305476359,1.43514323025943,2.63515391660667,NaN,1,,,,
409,1,2,9331.jpg,2.64692218105347,1.43514323025943,3.16457276647793,NaN,1,,,,
410,1,2,9101.jpg,3.17633650281141,3.69401063442501,5.69401938877718,NaN,1,,,,
411,1,2,7234.jpg,5.70578403073318,6.22344276676176,8.51758568246828,NaN,1,,,,
412,1,2,2221.jpg,8.52935032442429,9.0470111735724,10.9411493196662,NaN,1,,,,
413,1,2,9700.jpg,10.952916376616,9.0470111735724,11.4705757163929,NaN,1,,,,
414,1,2,9700.jpg,11.4823355283615,12.0000229424404,12.2941075964231,NaN,0,,,,
415,1,2,5120.jpg,12.3058734458762,12.823571727427,13.6235380986393,0.0824339997307106,0,,,,
416,1,2,4571.jpg,13.6353012312243,12.823571727427,14.1529545335168,NaN,1,,,,
417,1,2,4635.jpg,14.164720684844,14.6823809302437,15.4823868469782,NaN,1,,,,
418,1,2,9000.jpg,15.4941502814374,16.0118389030133,16.7059307416023,NaN,1,,,,
419,1,2,8465.jpg,16.7176959873068,17.2353571383292,19.4353805033934,NaN,1,,,,
420,1,2,8465.jpg,19.4471457490979,19.9648056926233,22.2589483064555,NaN,0,,,,
421,1,2,2720.jpg,22.2707123446633,22.7883768163017,23.1883719259395,NaN,1,,,,
422,1,2,9331.jpg,23.2001365678955,23.7177959076726,24.7178040582762,NaN,1,,,,
423,1,2,9042.jpg,24.7295683983582,25.2472413224748,27.6472554501881,NaN,1,,,,
424,1,2,1945.jpg,27.6590212996409,28.1767002612421,28.3766780432998,NaN,1,,,,
425,1,2,7700.jpg,28.3884411758847,28.9061020250326,29.306102266532,NaN,1,,,,
426,1,2,2490.jpg,29.3178898509286,29.8355250407683,30.9296533457625,NaN,1,,,,
427,1,2,2490.jpg,30.9414158745992,31.4590951380744,32.1532002591289,0.717738853445326,1,,,,
428,1,2,4561.jpg,32.1649645992106,32.6826203164972,34.5767593682135,NaN,1,,,,
429,1,2,9360.jpg,34.5885288401571,35.1061845574434,37.106207801758,NaN,1,36.2474568606651,,,
430,1,2,4320.jpg,37.1179769718274,37.6356284628746,39.0356440999592,NaN,1,,,,
431,1,2,9561.jpg,39.0474069306699,39.5650674779436,41.1650844432745,NaN,1,,,,
432,1,2,9561.jpg,41.176848179608,41.6945075193848,43.2945244847158,0.423588089009399,1,,,,
433,1,2,7920.jpg,43.3062888247978,43.8239487683231,45.223963801659,NaN,1,,,,
434,1,2,9001.jpg,45.2357311604831,45.75339623587,47.2475190467537,NaN,1,,,,
435,1,2,9390.jpg,47.2592800662192,47.7769433303611,49.5769649445549,NaN,1,,,,
436,1,2,9001.jpg,49.5887265677686,50.1063843981747,52.4005523694409,NaN,1,,,,
437,1,2,2490.jpg,52.4122934652082,52.9299525031108,53.3299530464844,NaN,1,,,,
438,1,2,1945.jpg,53.3417164809437,53.8593728019785,55.7535378148775,NaN,1,,,,
439,1,2,7700.jpg,55.7653000418397,56.2829385522959,56.8829425370354,NaN,1,,,,
440,1,2,4635.jpg,-2.29465791311941,-1.77699615834854,0.517144946112467,NaN,1,57.659504298387,,59.1889406569628,
441,1,2,9561.jpg,0.528909889942724,1.04656832409705,1.94069228210265,NaN,1,,,,
442,1,2,8465.jpg,1.95245752780716,2.47011233947092,3.27011885995398,NaN,1,,,,
443,1,2,9360.jpg,3.28188591690378,3.79954676605189,5.69368219527769,NaN,1,,,,
444,1,2,2221.jpg,5.70545227096954,6.22310889387859,7.62312332346619,NaN,1,,,,
445,1,2,9101.jpg,7.64666498422116,8.16431073965828,8.36433018035791,NaN,1,,,,
446,1,2,9700.jpg,8.37610599165987,8.89373454026668,11.3878802935908,NaN,1,,,,
447,1,2,7234.jpg,11.3996503692829,11.9173024640786,12.2114296823258,NaN,1,,,,
448,1,2,4571.jpg,12.2231867774265,12.740844305958,13.0349633736014,NaN,1,,,,
449,1,2,9331.jpg,13.0467234874443,13.5643912796993,13.7643799292287,NaN,1,,,,
450,1,2,9042.jpg,13.7761436655621,14.2938150803077,15.2938117596914,NaN,1,,,,
451,1,2,7920.jpg,15.3055767035216,15.8232475145187,18.3173820984969,NaN,1,,,,
452,1,2,9000.jpg,18.3291521741887,15.8232475145187,18.8467994389971,NaN,1,,,,
453,1,2,9390.jpg,18.8585640809531,19.3762249301012,20.2703600574528,NaN,1,,,,
454,1,2,4561.jpg,20.2821156431824,20.7997731717139,21.293914698799,NaN,1,,,,
455,1,2,2720.jpg,21.3056711901513,21.8233175493369,23.6233355410402,NaN,1,,,,
456,1,2,5120.jpg,23.635104107361,24.1527598246473,25.3527702091205,NaN,1,,,,
457,1,2,4320.jpg,25.3645345492023,25.8821950964762,25.9763080058854,NaN,1,,,,
458,1,2,4561.jpg,25.9880726478414,26.5057322894927,27.3998604737374,NaN,1,,,,
459,1,2,7234.jpg,27.4116227006996,27.9292847573445,29.1292921230754,NaN,1,,,,
460,1,2,4635.jpg,29.1410827262141,29.6587191235506,31.9528596242633,NaN,1,,,,
461,1,2,9390.jpg,31.9646221530998,32.4822827003736,34.4823047371915,NaN,1,,,,
462,1,2,5120.jpg,34.4940820578645,35.0117389826478,37.4117561291032,NaN,1,,,,
463,1,2,1945.jpg,37.4235189598139,37.941189468937,38.2352949522406,NaN,1,,,,
464,1,2,2490.jpg,38.2470614054419,38.7647195377219,38.8588333527539,NaN,1,,,,
465,1,2,9101.jpg,38.8705943722193,39.3882594476065,41.2823945749581,NaN,1,,,,
466,1,2,9360.jpg,41.2941583112915,41.8118188585654,42.8118801390312,NaN,1,,,,
467,1,2,9561.jpg,42.8235928586221,43.3412636696194,43.8353701792953,NaN,1,,,,
468,1,2,7920.jpg,43.8471372362451,43.3412636696194,44.3647896329151,NaN,1,43.9060516120385,,,
469,1,2,4571.jpg,44.3765542748711,44.8942133127737,45.3883318974183,NaN,1,,,,
470,1,2,9000.jpg,45.4000962375003,45.9177673503716,46.8118807427797,NaN,1,,,,
471,1,2,4320.jpg,46.8236465922325,47.3413059320096,48.341313478865,NaN,1,,,,
472,1,2,9331.jpg,48.353078120821,48.870733536233,50.8707567805477,NaN,1,,,,
473,1,2,9001.jpg,50.8825286674851,51.4001816679033,53.4943262741056,NaN,1,,,,
474,1,2,2221.jpg,53.5060869916967,54.0237735001531,54.8237522482084,NaN,1,,,,
475,1,2,9042.jpg,54.8355177957869,55.3531889086585,55.5531742375715,NaN,1,,,,
476,1,2,2720.jpg,55.5649379739048,56.0826118036441,56.7767184340698,NaN,1,,,,
477,1,2,8465.jpg,56.7884963584913,57.3061442270482,57.8002640191896,NaN,1,,,,
478,1,2,7700.jpg,57.8120316798879,58.3296861896772,59.3296970571491,NaN,1,59.0474383255882,,,
479,1,2,9700.jpg,-1.08260003054966,-0.564941596395329,0.729210979286108,NaN,1,,,60.4239234712638,
480,1,2,2490.jpg,0.740963848147658,1.25862228230199,2.85862717266423,NaN,1,,,,
481,1,2,4320.jpg,2.87039060712345,3.38805115439732,4.68218169326087,NaN,1,,,,
482,1,2,1945.jpg,4.69394633521688,5.21160627874224,5.70572275026734,NaN,1,,,,
483,1,2,5120.jpg,5.71748920346863,6.23514914699399,8.32930582816471,NaN,1,,,,
484,1,2,7234.jpg,8.34105477266166,8.85872437616194,11.258750880718,NaN,1,,,,
485,1,2,9561.jpg,11.2705088814414,11.7881854280486,11.9881882656662,NaN,1,,,,
486,1,2,9561.jpg,11.9999523038739,11.7881854280486,12.5176137567703,NaN,0,,,,
487,1,2,4571.jpg,12.5293578712797,13.0588232097803,14.3411344674546,0.470746879073431,0,,,,
488,1,2,9700.jpg,14.3528988075366,14.8705684110369,16.4705739051476,NaN,1,,,,
489,1,2,9101.jpg,16.4823391508519,17.0000069431069,19.4941451495756,NaN,1,,,,
490,1,2,9001.jpg,19.5059070746638,20.0235667163149,20.2235710633036,NaN,1,,,,
491,1,2,7920.jpg,20.2353299696497,20.752999875024,23.0471349420009,NaN,1,,,,
492,1,2,4635.jpg,23.0588971689633,23.5765767343128,25.5765788474321,NaN,1,,,,
493,1,2,2221.jpg,25.5883431875141,26.1060010179199,26.8001296851633,NaN,1,,,,
494,1,2,4561.jpg,26.8118931196225,27.3295563837642,28.1295550555178,NaN,1,,,,
495,1,2,9331.jpg,28.1413184899768,28.6589766222569,30.4589970289539,NaN,1,,,,
496,1,2,9042.jpg,30.4707595577904,30.9884195013158,32.4825537834197,NaN,1,,,,
497,1,2,9360.jpg,32.4943163122564,33.011987727002,33.211974565286,NaN,1,,,,
498,1,2,8465.jpg,33.2237383016195,33.7413970376479,35.1414117691097,NaN,1,,,,
499,1,2,7700.jpg,35.1531761091915,35.6708366564653,37.2708515086767,NaN,1,,,,
500,1,2,9000.jpg,37.2826152450102,37.8002788110261,39.4944101951376,NaN,1,,,,
501,1,2,9390.jpg,39.5179458184082,40.0356084788016,40.9297230787065,NaN,1,,,,
502,1,2,2720.jpg,40.9414874187883,41.4591470604394,42.6591556336673,NaN,1,,,,
503,1,2,7700.jpg,42.6709226906171,43.1885823322682,44.3885936223637,NaN,1,,,,
504,1,2,9101.jpg,44.4003570568229,44.9180176040968,46.8121539389454,NaN,1,,,,
505,1,2,4571.jpg,46.8239182790271,47.3415785244267,47.4356935469557,NaN,1,,,,
506,1,2,5120.jpg,47.4474578870374,47.9651649229406,50.4592605651449,NaN,1,,,,
507,1,2,4635.jpg,50.4710291314657,50.988686358123,52.3886995802138,NaN,1,,,,
508,1,2,4635.jpg,52.4004636184213,52.9181353350411,55.4122696171451,0.835412441685548,1,54.4594021441521,,,
509,1,2,1945.jpg,55.4240348628496,55.9417050700981,57.7417121943297,NaN,1,,,,
510,1,2,8465.jpg,57.7534765344117,58.2711401004276,59.0711659408605,NaN,1,,,,
511,1,2,7234.jpg,59.0829233378354,59.6123261883731,61.400585877479,NaN,1,,,,
512,1,2,2221.jpg,61.4123487081897,61.9300213304321,64.3300360618939,NaN,1,,,,
513,1,2,9331.jpg,64.3417991944789,64.8594636661176,66.7535984915949,NaN,1,66.2477883185545,,,
514,1,2,9000.jpg,66.7653649447964,67.2830221714537,67.377153193316,NaN,1,,,,
515,1,2,9000.jpg,67.3888985153224,67.9065892500178,69.0006867638419,NaN,0,,,,
516,1,2,9561.jpg,-0.294321021493943,0.223334997666598,1.22335461949069,NaN,1,,,69.1537252183909,0.152774012735563
517,1,2,9561.jpg,1.23511201646556,1.75276562063232,4.15281265263525,NaN,0,,,,
518,1,2,9001.jpg,4.16456220088048,4.68223572874558,6.57635244177004,NaN,1,,,,
519,1,2,7920.jpg,6.5881231212104,4.68223572874558,7.10580630905042,NaN,1,,,,
520,1,2,7920.jpg,7.1175555554214,7.63519557524864,8.24696329632161,NaN,0,,,,
521,1,2,9042.jpg,8.25872884390037,8.77638878742573,11.2705399744857,NaN,1,,,,
522,1,2,2490.jpg,11.2823018995739,11.7999597299797,13.6941181016459,NaN,1,,,,
523,1,2,4320.jpg,14.1766278114301,14.6941129697843,16.8000210104456,NaN,1,,,,
524,1,2,4561.jpg,16.8117998404898,17.3294567652729,19.5294677534944,NaN,1,,,,
525,1,2,9360.jpg,19.5412323954506,20.0589032064477,21.6589071911874,NaN,1,,,,
526,1,2,2720.jpg,21.6706733425144,22.1883314747945,23.4824617117838,NaN,1,,,,
527,1,2,9390.jpg,23.4942269574883,24.0119035040957,24.7060068139049,NaN,1,,,,
528,1,2,9700.jpg,24.7177919833077,24.0119035040957,25.2354253619021,NaN,1,,,,
529,1,2,9390.jpg,25.2471909094807,25.7648502492577,27.1648643769709,NaN,1,,,,
530,1,2,9561.jpg,27.1766278114301,27.6942874530812,29.3884239690544,NaN,1,,,,
531,1,2,4635.jpg,29.4001877053877,29.9178479507873,30.011962671442,NaN,1,,,,
532,1,2,9001.jpg,30.0237611233104,30.5413860494266,31.635511637553,NaN,1,,,,
533,1,2,1945.jpg,31.6472765813833,32.1649362230344,33.5649488413767,NaN,1,,,,
534,1,2,1945.jpg,33.5767134833327,34.0943725212355,35.8943923241841,NaN,0,,,,
535,1,2,9042.jpg,35.9061575698886,36.4238187209107,38.3297187920928,NaN,1,,,,
536,1,2,2720.jpg,38.3414834340488,38.8591756781152,40.9768145508203,NaN,1,,,,
537,1,2,9700.jpg,40.9885779852796,41.5062403437987,43.4003772823955,NaN,1,,,,
538,1,2,9331.jpg,43.412139509358,43.9297988491348,45.5298155125915,NaN,1,,,,
539,1,2,4571.jpg,45.5768786085291,46.0945343258154,48.6122102686743,NaN,1,,,,
540,1,2,5120.jpg,48.6239887968443,49.1416451178789,50.4357641855224,NaN,1,50.0360824213212,,,
541,1,2,7700.jpg,50.447532449969,51.0004820931235,52.4596276441919,NaN,1,,,,
542,1,2,2490.jpg,52.4713530424997,52.989036532214,54.4243303977073,NaN,1,,,,
543,1,2,8465.jpg,54.436090209676,54.9537284182577,56.2243459744168,NaN,1,,,,
544,1,2,8465.jpg,56.236106390134,56.7537331274955,59.0361364568059,NaN,0,,,,
545,1,2,9000.jpg,-1.78851356532186,-1.27083037748184,1.02330951948261,NaN,1,,,60.8362933106487,
546,1,2,7920.jpg,1.03505242649499,1.59980414400843,2.44685625172406,NaN,1,,,,
547,1,2,7234.jpg,2.47048817286986,2.98806932722482,4.30569081197518,NaN,1,,,,
548,1,2,4561.jpg,4.31748624510101,4.83512505743147,6.10573204799312,NaN,1,,,,
549,1,2,4561.jpg,6.11751329303115,6.63491211535938,8.03517257243311,NaN,0,,,,
550,1,2,9360.jpg,8.04691547944549,8.5998699525876,9.36461937585682,NaN,1,,,,
551,1,2,9101.jpg,9.3764576751214,9.89400773643229,10.9999009852568,NaN,1,,,,
552,1,2,4320.jpg,11.0117075877288,11.5999270068141,11.6352396488837,NaN,1,,,,
553,1,2,2221.jpg,11.6469668584373,12.2940351466109,13.5882004010095,NaN,1,,,,
