Trial,nBack,Valence,Image,imagePresentationTime,NoisePresentationTime,x,RT,Accuracy,experiment,Clock_1,Clock_2,dataOneMinPress
1,1,0,9045.jpg,0.0143968851625687,0.590848263676889,1.3317819118829,NaN,1,0,,,
2,1,0,4520.jpg,1.34354767964487,1.86120282153843,2.75531936410061,NaN,1,0,,,
3,1,0,6314.jpg,2.76708482999038,3.28474027375523,3.77885512583362,NaN,1,0,,,
4,1,0,2850.jpg,3.79061968610677,4.30829082722266,5.30827633736135,NaN,1,0,,,
5,1,0,4000.jpg,5.32003999201788,5.83769724701688,6.2376938056741,NaN,1,0,,,
6,1,0,8116.jpg,6.24945806407595,6.76712075277192,9.0612386839457,NaN,1,0,,,
7,1,0,4001.jpg,9.07301380974332,9.59067136661452,9.99065524664275,NaN,1,0,,,
8,1,0,4003.jpg,10.0024210144047,10.5201036266617,12.9200856954576,NaN,1,0,,,
9,1,0,7830.jpg,12.9318502557308,13.4495066051131,14.5436264078935,NaN,1,0,,,
10,1,0,8050.jpg,14.5554030430521,15.0730455063167,15.3671589094083,NaN,1,0,,,
11,1,0,8050.jpg,15.3789286015081,15.8965801209361,16.8965967239028,0.835392755249813,1,0,,,
12,1,0,7820.jpg,16.9083528317569,17.4260604993988,19.3201193843861,NaN,1,0,,,
13,1,0,4490.jpg,19.3318890764858,19.8495451239951,21.9436776054054,NaN,1,0,,,
14,1,0,4180.jpg,21.9554340151317,22.4730900626409,23.9672121596504,NaN,1,0,,,
15,1,0,4530.jpg,23.9789887948082,24.4966496722727,26.296637054018,NaN,1,0,,,
16,1,0,5535.jpg,26.3084016142911,26.8260576618013,29.1201855547552,NaN,1,0,,,
17,1,0,7496.jpg,29.1319495112839,29.6496028419451,29.9437168487812,NaN,1,0,,,
18,1,0,7496.jpg,29.9554826165431,30.4731591913569,31.3672561122312,0.482452928325074,1,0,,,
19,1,0,7237.jpg,31.379021578121,31.8966740031656,32.1907901231061,NaN,1,0,,,
20,1,0,7130.jpg,32.2025549852515,32.7202125421227,33.3202190021857,NaN,1,0,,,
21,1,0,4525.jpg,33.3319726950631,33.8497081349406,35.7437609824847,NaN,1,0,,,
22,1,0,7180.jpg,35.755521618421,36.2731743453369,38.1672966234692,NaN,1,0,,,
23,1,0,2312.jpg,38.1790614856154,38.6967323248591,40.9908985555721,NaN,1,0,,,
24,1,0,2312.jpg,41.0026652289498,41.5202675432229,43.0261937457526,0.600051439009803,1,0,,,
25,1,0,7190.jpg,43.0379145345687,43.5555802419867,43.8496851926593,NaN,1,0,,,
26,1,0,4490.jpg,43.8614482435723,44.3791051966982,46.7791147358575,NaN,1,0,,,
27,1,0,7130.jpg,46.7908786923863,47.3085374567454,49.402670240027,NaN,1,0,,,
28,1,0,7130.jpg,49.4144480826744,49.9320817916469,50.7320785314278,0.600064117637885,1,0,,,
29,1,0,7820.jpg,50.7438455066786,51.2615027616766,52.7556257643027,NaN,1,0,,,
30,1,0,7180.jpg,52.7673885133427,53.2850542207607,55.7791711859436,NaN,1,0,,,
31,1,0,4000.jpg,55.7909357462167,56.3086050761003,58.2027189018136,NaN,1,0,,,
32,1,0,2850.jpg,58.2144798396212,58.7321440376782,60.9321418641994,NaN,1,0,,,
33,1,0,7237.jpg,60.9439079338326,61.4615763580996,62.6615675434341,NaN,1,0,,,
34,1,0,4001.jpg,62.6733321037073,63.1909926792987,64.4851103086003,NaN,1,0,,,
35,1,0,5535.jpg,64.4968745670021,65.0145650279337,66.5086560321142,NaN,1,0,,,
36,1,0,6314.jpg,66.5204196867717,67.0380724136876,67.8380718703183,NaN,1,0,,,
37,1,0,4003.jpg,67.8616302724604,68.3792555290138,70.2733823352282,NaN,1,0,,,
38,1,0,8050.jpg,70.2851484048624,70.802800829907,72.202818217741,NaN,1,0,,,
39,1,0,4525.jpg,72.2145740237229,72.7322249394065,74.4263530134831,NaN,1,0,,,
40,1,0,4180.jpg,74.4381136494194,74.9558007897576,75.8498868432353,NaN,1,0,,,
41,1,0,7190.jpg,75.8616514035093,76.3793089603796,76.8734373967027,NaN,1,0,,,
42,1,0,8116.jpg,76.8851959195335,77.4028561932537,78.6969659738797,NaN,1,0,,,
43,1,0,4520.jpg,78.7087317416417,79.2263905060008,80.2263868835353,NaN,1,0,,,
44,1,0,4530.jpg,80.2381671411595,80.7558059819585,82.7558189624597,NaN,1,0,,,
45,1,0,7496.jpg,82.7675922770241,83.2852335327998,85.285252248872,NaN,1,0,,,
46,1,0,7496.jpg,85.297022242843,85.8146634986188,87.6146795582163,0.658907144437762,1,0,,,
47,1,0,2312.jpg,87.626433552965,88.1441080146742,88.6382621101284,NaN,1,0,,,
48,1,0,7830.jpg,88.649997690678,89.1676374370936,89.3676222831127,NaN,1,0,,,
49,1,0,9045.jpg,89.3793910695958,89.8970537582927,91.3912241548405,NaN,1,0,,,
50,1,0,4525.jpg,91.402973621508,91.9205868031768,92.8147468153247,NaN,1,0,,,
51,1,0,4180.jpg,92.8265050362834,93.3441248591389,95.7441353039139,NaN,1,0,,,
52,1,0,7820.jpg,95.755898354827,96.2735589304184,98.7676837442768,NaN,1,0,,,
53,1,0,6314.jpg,98.77944830455,99.2971137100958,100.097104110562,NaN,1,0,,,
54,1,0,4490.jpg,100.108876821383,100.626525020218,102.720708819888,NaN,1,0,,,
55,1,0,9045.jpg,102.732418439436,103.250072675713,105.544201172411,NaN,1,0,,,
56,1,0,7130.jpg,105.555967242045,106.073619968961,107.673627334641,NaN,1,0,,,
57,1,0,2312.jpg,107.685388876193,108.20307722402,110.497174024145,NaN,1,0,,,
58,1,0,5535.jpg,110.508938584419,111.026594631929,113.426604171088,NaN,1,0,,,
59,1,0,4520.jpg,113.438369335106,113.956025684487,115.450147177752,NaN,1,0,,,
60,1,0,2850.jpg,115.461917775468,115.979568993024,117.873730816404,NaN,1,0,,,
61,1,0,4000.jpg,117.88546730257,118.403114293917,119.897304915897,NaN,1,0,,,
62,1,0,7237.jpg,119.909014837316,120.426677224141,120.626659353311,NaN,1,0,,,
63,1,0,4530.jpg,120.638425724817,121.156080564839,122.356075372638,NaN,1,0,,,
64,1,0,8116.jpg,122.367840838529,122.885498395399,124.579634016279,NaN,1,0,,,
65,1,0,7190.jpg,124.591392237237,125.109040436072,126.509047862126,NaN,1,0,,,
66,1,0,7190.jpg,126.520809101807,127.038466054933,128.038467262421,0.72954491872224,1,0,,,
67,1,0,8050.jpg,128.050235747032,128.567898133857,130.967898013108,NaN,1,0,,,
68,1,0,8050.jpg,130.979663478997,131.497394088921,133.591448385452,0.705995572743632,1,0,,,
69,1,0,7830.jpg,133.603209927004,134.12087684191,136.320919345505,NaN,1,0,,,
70,1,0,4001.jpg,136.332666095323,136.850297087447,137.850302219274,NaN,1,0,,,
71,1,0,4003.jpg,137.862079760048,138.37973188322,139.97972506091,NaN,1,0,,,
72,1,0,7180.jpg,139.99149475301,140.509168309102,142.709154664482,NaN,1,0,,,
73,1,0,7496.jpg,142.720925564071,143.238576479755,145.638621337951,NaN,1,0,,,
74,1,0,4530.jpg,145.650391331923,146.168007532313,147.968013026386,NaN,1,0,,,
75,1,0,4530.jpg,147.979784227846,148.497436049146,149.097433151173,0.835383397214173,1,0,,,
76,1,0,9045.jpg,149.109216427519,149.626854966446,151.320986662988,NaN,1,0,,,
77,1,0,9045.jpg,151.332749713901,151.850398214608,152.144512523316,NaN,0,0,,,
78,1,0,4520.jpg,152.156279498566,152.673934338587,153.768054443241,0.176524854188756,0,0,,,
79,1,0,8050.jpg,153.779817494154,154.297485314676,156.097490205004,NaN,1,0,,,
80,1,0,4180.jpg,156.10924510537,156.626901454752,159.026923068795,NaN,1,0,,,
81,1,0,7130.jpg,159.038684308476,159.556343374707,161.650497289037,NaN,1,0,,,
82,1,0,7237.jpg,161.662278754149,162.179879860933,163.485767484207,NaN,1,0,,,
83,1,0,4000.jpg,163.497531440736,164.015186280757,166.015194733177,NaN,1,0,,,
84,1,0,6314.jpg,166.026965934637,166.544617152193,167.74463007232,NaN,1,0,,,
85,1,0,4001.jpg,167.756390406383,168.274050680103,170.768167343414,NaN,1,0,,,
86,1,0,4490.jpg,170.779935828024,171.297590366174,173.791718500625,NaN,1,0,,,
87,1,0,7830.jpg,173.803483060899,174.321149070189,176.521147198581,NaN,1,0,,,
88,1,0,8116.jpg,176.532915985064,177.050563882027,178.144688816634,NaN,1,0,,,
89,1,0,2850.jpg,178.15649080905,178.674110933778,179.874114797741,NaN,1,0,,,
90,1,0,7180.jpg,179.885890527283,180.40356317776,181.097652914077,NaN,1,0,,,
91,1,0,7820.jpg,181.109418078095,181.627072616244,183.627078351814,NaN,1,0,,,
92,1,0,4525.jpg,183.638860118798,184.156499865214,186.450629267528,NaN,1,0,,,
93,1,0,7190.jpg,186.462394733418,186.980060138963,189.27417565516,NaN,1,0,,,
94,1,0,2312.jpg,189.285945951005,189.803601998514,191.297718661825,NaN,1,0,,,
95,1,0,4003.jpg,191.309500730681,191.827150137005,193.427143616566,NaN,1,0,,,
96,1,0,5535.jpg,193.438913610538,193.956571771153,194.45069084944,NaN,1,0,,,
97,1,0,7496.jpg,194.462461447157,194.980117192795,197.274288555333,NaN,1,0,,,
98,1,0,7180.jpg,197.286053417479,197.803660863578,199.003653860144,NaN,1,0,,,
99,1,0,7190.jpg,199.015417816673,199.533088655917,200.133104775889,NaN,1,0,,,
100,1,0,4003.jpg,200.144878392325,200.662499724542,202.956622183797,NaN,1,0,,,
101,1,0,4001.jpg,202.968397611467,203.486041885964,205.48609260048,NaN,1,0,,,
102,1,0,4001.jpg,205.497826973542,206.015482417307,208.309631139437,0.976551781181115,1,0,,,
103,1,0,4525.jpg,208.321392982862,208.839019145032,209.639027657825,NaN,1,0,,,
104,1,0,9045.jpg,209.650792519971,210.168454303051,211.968448325983,NaN,1,0,,,
105,1,0,6314.jpg,211.980211376896,212.497912705224,214.192005762135,NaN,1,0,,,
106,1,0,5535.jpg,214.203764586838,214.721404333253,215.121420815472,NaN,1,0,,,
107,1,0,2312.jpg,215.133174508348,215.650831159603,216.744950660511,NaN,1,0,,,
108,1,0,7820.jpg,216.756714013296,217.274372777655,218.074372838029,NaN,1,0,,,
109,1,0,4520.jpg,218.086164264922,218.603792238324,220.497919648283,NaN,1,0,,,
110,1,0,7496.jpg,220.509682699196,221.027362292731,221.827328241556,NaN,1,0,,,
111,1,0,4000.jpg,221.850910189723,222.368524880752,224.662651566218,NaN,1,0,,,
112,1,0,7237.jpg,224.674426993888,225.192070966513,227.286198316096,NaN,1,0,,,
113,1,0,8050.jpg,227.297986724268,227.81563733808,228.909739632278,NaN,1,0,,,
114,1,0,7830.jpg,228.921508116889,229.439159032572,230.733282095572,NaN,1,0,,,
115,1,0,7130.jpg,230.756833856528,231.274479338514,233.074475172678,NaN,1,0,,,
116,1,0,2850.jpg,233.086261467744,233.603906345986,235.803902965018,NaN,1,0,,,
117,1,0,4180.jpg,235.81569439191,236.333348628187,237.933338183412,NaN,1,0,,,
118,1,0,8116.jpg,237.945106064279,238.462757583707,239.956873039529,NaN,1,0,,,
119,1,0,4530.jpg,239.968665070165,240.486303910964,241.380411397363,NaN,1,0,,,
120,1,0,4490.jpg,241.392180183846,241.909842872543,243.109861830111,NaN,1,0,,,
121,1,0,7237.jpg,243.121599523766,243.639273683603,245.533389320549,NaN,1,0,,,
122,1,0,4001.jpg,245.545155088311,246.062812947053,248.356940236263,NaN,1,0,,,
123,1,0,4001.jpg,248.368696344117,248.886380767606,250.780532931079,0.92949927565769,1,0,,,
124,1,0,4001.jpg,250.79230141569,251.309893164438,251.509903669587,0.647085228461037,1,0,,,
125,1,0,7496.jpg,251.521662192418,252.039323673626,253.839341544456,0.0706528678911127,0,0,,,
126,1,0,7820.jpg,253.85108346432,254.368740115575,255.568752130085,NaN,1,0,,,
127,1,0,4525.jpg,255.580513369765,256.098163077961,257.29823335379,NaN,1,0,,,
128,1,0,4530.jpg,257.31001029082,257.827595398382,258.227584712109,NaN,1,0,,,
129,1,0,9045.jpg,258.239350177999,258.757040035186,260.851131160115,NaN,1,0,,,
130,1,0,9045.jpg,260.862897229749,261.380552673515,262.274670423566,0.976562648577783,1,0,,,
131,1,0,4180.jpg,262.286435587584,262.804091936965,263.498207332414,NaN,1,0,,,
132,1,0,4000.jpg,263.509972798303,264.027635486999,265.027633373895,NaN,1,0,,,
133,1,0,6314.jpg,265.039395217319,265.557076923959,266.651231442034,NaN,1,0,,,
134,1,0,5535.jpg,266.662978191852,267.180592581009,268.674714376147,NaN,1,0,,,
135,1,0,2850.jpg,268.68647893642,269.204151586896,270.698256477194,NaN,1,0,,,
136,1,0,4490.jpg,270.71002133934,271.227679198083,272.321806245795,NaN,1,0,,,
137,1,0,8116.jpg,272.333569900451,272.851225042345,273.945349071336,NaN,1,0,,,
138,1,0,2312.jpg,273.957104877318,274.474760321084,275.874762917183,NaN,1,0,,,
139,1,0,7190.jpg,275.886536231748,276.404208580353,278.098307976578,NaN,1,0,,,
140,1,0,4520.jpg,278.110075857445,278.627737036781,281.027739331009,NaN,1,0,,,
141,1,0,4003.jpg,281.03950630626,281.55715963692,283.451282820669,NaN,1,0,,,
142,1,0,7830.jpg,283.463069115734,283.980705239685,285.074825344338,NaN,1,0,,,
143,1,0,7180.jpg,285.098355370501,285.616011418011,287.710157181794,NaN,1,0,,,
144,1,0,7180.jpg,287.721901818508,288.239559979123,288.733682679876,0.89420499109292,1,0,,,
145,1,0,7130.jpg,288.745442712067,289.263109626973,289.557208238331,NaN,1,0,,,
146,1,0,8050.jpg,289.56897491171,290.086651788396,290.486635366553,NaN,1,0,,,
147,1,0,7180.jpg,290.498404153036,291.016045408812,291.510162373995,NaN,1,0,,,
148,1,0,9045.jpg,291.521933877327,292.039589321093,292.933701939317,NaN,1,0,,,
149,1,0,2850.jpg,292.945465292102,293.463130093904,294.357241504639,NaN,1,0,,,
150,1,0,4000.jpg,294.369013007971,294.886690790274,295.086667787618,NaN,1,0,,,
151,1,0,8116.jpg,295.098430536659,295.616085376681,297.016095519583,NaN,1,0,,,
152,1,0,8116.jpg,297.027854042414,297.545500731889,297.945499101779,0.764809921692176,1,0,,,
153,1,0,8116.jpg,297.9572718126,298.474919709563,298.969036071001,0.917788146750354,1,0,,,
154,1,0,4530.jpg,298.980800933147,299.498465433076,301.192581130396,0.188289414460996,0,0,,,
155,1,0,4003.jpg,301.204344785053,301.72200596439,303.922012243329,NaN,1,0,,,
156,1,0,7190.jpg,303.933774388625,304.451431945497,306.94555887246,NaN,1,0,,,
157,1,0,8050.jpg,306.957325243965,307.47498340458,308.969109727799,NaN,1,0,,,
158,1,0,7237.jpg,308.980871571223,309.498535467408,311.992685336652,NaN,1,0,,,
159,1,0,4520.jpg,312.004479782266,312.522081794666,314.027962414506,NaN,1,0,,,
160,1,0,7820.jpg,314.039724861675,314.557433434933,315.95739286332,NaN,1,0,,,
161,1,0,4001.jpg,315.969165574141,316.486806226173,317.38092488184,NaN,1,0,,,
162,1,0,4180.jpg,317.392690951474,317.910350621449,319.110356598517,NaN,1,0,,,
163,1,0,7496.jpg,319.122118743813,319.639769659497,320.93389030752,NaN,1,0,,,
164,1,0,2312.jpg,320.945652150945,321.463311217175,321.757480466609,NaN,1,0,,,
165,1,0,5535.jpg,321.769258007384,322.286845529923,324.580990629587,NaN,1,0,,,
166,1,0,4525.jpg,324.592785377073,325.110405199928,325.41637100808,NaN,1,0,,,
167,1,0,4490.jpg,325.428045006718,325.945728826463,327.145716993075,NaN,1,0,,,
168,1,0,7830.jpg,327.157466761615,327.675118582915,329.769283968387,NaN,1,0,,,
169,1,0,7130.jpg,329.78101864332,330.298666238411,331.392794795483,NaN,1,0,,,
170,1,0,6314.jpg,331.404560261372,331.922204837742,333.522210995933,NaN,1,0,,,
171,1,0,7180.jpg,333.533975254335,334.051660281568,336.145754123347,NaN,1,0,,,
172,1,0,4530.jpg,336.157530758504,336.675179259211,338.969306246549,NaN,1,0,,,
173,1,0,7237.jpg,338.981071712439,339.498726854333,341.898789824857,NaN,1,0,,,
174,1,0,7237.jpg,341.910509406184,342.428169679903,343.028165272571,0.847157013651668,1,0,,,
175,1,0,7496.jpg,343.039926814123,343.557576220446,344.35757628082,NaN,1,0,,,
176,1,0,4520.jpg,344.369349897258,344.886999303581,347.181131120872,NaN,1,0,,,
177,1,0,4520.jpg,347.192898397994,347.710554747377,349.310551849404,0.91773139479119,1,0,,,
178,1,0,2850.jpg,349.322321843376,349.839971853443,351.239985015068,NaN,1,0,,,
179,1,0,2850.jpg,351.251749575341,351.769424338922,353.369403932367,0.835378567260705,1,0,,,
180,1,0,4003.jpg,353.381167587025,353.898848388048,355.992951587862,NaN,1,0,,,
181,1,0,6314.jpg,356.004716148136,356.522383364914,357.922375999235,NaN,1,0,,,
182,1,0,7830.jpg,357.934138446403,358.451795701401,359.05179008658,NaN,1,0,,,
183,1,0,5535.jpg,359.063568231099,359.581214618701,360.781216671431,NaN,1,0,,,
184,1,0,4000.jpg,360.792986665403,361.310674107613,362.510641143177,NaN,1,0,,,
185,1,0,7190.jpg,362.522411137149,363.040056921007,365.534199847192,NaN,1,0,,,
186,1,0,9045.jpg,365.545964407465,366.063609587579,367.663616047643,NaN,1,0,,,
187,1,0,4490.jpg,367.675380909788,368.193036353554,369.993044262603,NaN,1,0,,,
188,1,0,7130.jpg,370.004809124749,370.522480265865,372.416595600938,NaN,1,0,,,
189,1,0,7130.jpg,372.428356538746,372.946015001233,373.946011076895,0.764794224341131,1,0,,,
190,1,0,4001.jpg,373.957779863378,374.475432590295,375.875441223838,NaN,1,0,,,
191,1,0,8050.jpg,375.898973664978,376.416628203127,377.910754224474,NaN,1,0,,,
192,1,0,8050.jpg,377.922515464154,378.440167889198,378.934281231916,0.776547313474111,1,0,,,
193,1,0,4180.jpg,378.946057867074,379.463702745315,380.957823634836,NaN,1,0,,,
194,1,0,2312.jpg,380.969593326936,381.487245148236,383.287261509705,NaN,1,0,,,
195,1,0,2312.jpg,383.299015504454,383.816674268813,385.016674812183,0.753032682789126,1,0,,,
196,1,0,4525.jpg,385.040206347707,385.557885941242,387.757869277901,NaN,1,0,,,
197,1,0,7820.jpg,387.76963897,388.287292602533,390.181418201259,NaN,1,0,,,
198,1,0,7820.jpg,390.193180950299,390.710837299681,391.710842129635,0.894240612003159,1,0,,,
199,1,0,7820.jpg,391.722611519863,392.240257907464,393.440262978917,0.894213141640648,1,0,,,
200,1,0,8116.jpg,393.463792703207,393.98144905259,395.075568251626,NaN,1,0,,,
201,1,0,7180.jpg,395.099132389339,395.616760664613,397.616761268358,NaN,1,0,,,
202,1,0,7830.jpg,397.628524621143,398.146184291118,400.040304456145,NaN,1,0,,,
203,1,0,7830.jpg,400.052069620163,400.569736836941,401.769730739125,0.670693439504248,1,0,,,
204,1,0,4003.jpg,401.781494997526,402.299172477957,404.099158954085,NaN,1,0,,,
205,1,0,4490.jpg,404.110921703126,404.628577750636,407.028597553447,NaN,1,0,,,
206,1,0,4520.jpg,407.040368151163,407.558011520044,409.558019670591,NaN,1,0,,,
207,1,0,7130.jpg,409.569783928992,410.087448127049,411.88748894016,NaN,1,0,,,
208,1,0,8050.jpg,411.899214860802,412.416879058859,412.816863844504,NaN,1,0,,,
209,1,0,6314.jpg,412.828630517883,413.34628898037,414.440403953196,NaN,1,0,,,
210,1,0,7237.jpg,414.452182097715,414.969830598422,416.569830115427,NaN,1,0,,,
211,1,0,4000.jpg,416.581599807526,417.09926068499,418.393370465617,NaN,1,0,,,
212,1,0,7496.jpg,418.405139855844,418.922802846412,419.216906589597,NaN,1,0,,,
213,1,0,4530.jpg,419.228676583568,419.746323574915,420.440501156019,NaN,1,0,,,
214,1,0,7820.jpg,420.452251528303,420.969865313716,423.169874309505,NaN,1,0,,,
215,1,0,4001.jpg,423.181637360418,423.699303369708,423.899292743809,NaN,1,0,,,
216,1,0,7190.jpg,423.911059417187,424.428719690907,426.628719932404,NaN,1,0,,,
217,1,0,2312.jpg,426.640488115144,427.15814084206,427.452281413643,NaN,1,0,,,
218,1,0,9045.jpg,427.464026050357,427.981678475401,429.781685478834,NaN,1,0,,,
219,1,0,9045.jpg,429.79344188856,430.311104577257,431.711107173357,0.753037512743504,1,0,,,
220,1,0,2850.jpg,431.722877167328,432.240528083013,432.934644082205,NaN,1,0,,,
221,1,0,5535.jpg,432.946409246222,433.464068312453,434.958250783886,NaN,1,0,,,
222,1,0,8116.jpg,434.970008099229,435.487622790258,435.88761995266,NaN,1,0,,,
223,1,0,8116.jpg,435.899370626817,436.417028183687,438.217033074015,0.611850110832165,1,0,,,
224,1,0,4525.jpg,438.228798238033,438.746451266821,440.346457123141,NaN,1,0,,,
225,1,0,4180.jpg,440.358247644416,440.875883164622,441.170003510772,NaN,1,0,,,
226,1,0,4001.jpg,441.181759618627,441.699415968009,441.993528767356,NaN,1,0,,,
227,1,0,4000.jpg,442.00529483699,442.522952393861,443.017078113336,NaN,1,0,,,
228,1,0,7130.jpg,443.02883150434,443.546502947328,443.746511339373,NaN,1,0,,,
229,1,0,7130.jpg,443.758254466726,444.275901759945,445.475905925779,0.553064439736772,1,0,,,
230,1,0,4525.jpg,445.48771274815,446.005326835435,448.099482259126,NaN,1,0,,,
231,1,0,2312.jpg,448.111239876341,448.628873887186,450.22887913976,NaN,1,0,,,
232,1,0,5535.jpg,450.240646416883,450.758310011196,452.158304154877,NaN,1,0,,,
233,1,0,2850.jpg,452.170080790035,452.687725970149,454.887769077488,NaN,1,0,,,
234,1,0,6314.jpg,454.899498620595,455.417156479338,455.817151830507,NaN,1,0,,,
235,1,0,7180.jpg,455.840687894112,456.358336998564,458.65247938138,NaN,1,0,,,
236,1,0,7190.jpg,458.664238206083,459.181890329255,459.581883567319,NaN,1,0,,,
237,1,0,7237.jpg,459.593647523849,460.111302967614,461.511307374947,NaN,1,0,,,
238,1,0,7830.jpg,461.53483589175,462.052502504784,462.546609206314,NaN,1,0,,,
239,1,0,8050.jpg,462.558372860972,463.076031927203,464.570152514852,NaN,1,0,,,
240,1,0,7820.jpg,464.581915867636,465.099574028251,465.299576986597,NaN,1,0,,,
241,1,0,7496.jpg,465.311333396324,465.828991255066,467.828996386893,NaN,1,0,,,
242,1,0,4003.jpg,467.840766380864,468.358416692804,470.558425084849,NaN,1,0,,,
243,1,0,4520.jpg,470.570199003158,471.087861993727,473.487871834757,NaN,1,0,,,
244,1,0,4530.jpg,473.499622207041,474.017279160167,476.511407898363,NaN,1,0,,,
245,1,0,4180.jpg,476.523189363475,477.04082760053,478.440831705991,NaN,1,0,,,
246,1,0,9045.jpg,478.452605322428,478.970273746695,479.770252072277,NaN,1,0,,,
247,1,0,9045.jpg,479.782017538167,480.29967418942,480.699680407986,0.776563614567749,1,0,,,
248,1,0,4490.jpg,480.711488739717,481.229093770839,482.629110253056,NaN,1,0,,,
249,1,0,4490.jpg,482.640869379631,483.158515465361,484.758519510448,1.74126721689936,1,0,,,
250,1,0,8116.jpg,484.770286787571,485.287951589372,487.287951891244,NaN,1,0,,,
251,1,0,7190.jpg,487.29972671517,487.817382762679,488.111535711018,NaN,1,0,,,
252,1,0,4001.jpg,488.12325861294,488.64090620803,490.335029452153,NaN,1,0,,,
253,1,0,8116.jpg,490.346794918043,490.864450059937,492.264464127177,NaN,1,0,,,
254,1,0,4525.jpg,492.276219631287,492.793882018112,493.393873082697,NaN,1,0,,,
255,1,0,6314.jpg,493.405639152331,493.92329791669,496.323305342744,NaN,1,0,,,
256,1,0,2850.jpg,496.33507744982,496.852750100297,498.45274086301,NaN,1,0,,,
257,1,0,4000.jpg,498.464499687713,498.982177168144,500.182162919779,NaN,1,0,,,
258,1,0,7130.jpg,500.193933819367,500.71160163989,503.111585821791,NaN,1,0,,,
259,1,0,4520.jpg,503.123350080192,503.641015183865,505.335140239222,NaN,1,0,,,
260,1,0,9045.jpg,505.346895743332,505.864549979608,507.064554145443,NaN,1,0,,,
261,1,0,7180.jpg,507.076317498228,507.593989846833,509.793982541528,NaN,1,0,,,
262,1,0,7830.jpg,509.805747705545,510.323405262416,511.723406349155,NaN,1,0,,,
263,1,0,7496.jpg,511.735173626278,512.252828164427,513.746965656915,NaN,1,0,,,
264,1,0,2312.jpg,513.758717538559,514.276382642232,516.076377872652,NaN,1,0,,,
265,1,0,4490.jpg,516.088154205939,516.605803008518,517.605799386052,NaN,1,0,,,
266,1,0,8050.jpg,517.617581756781,518.135286405702,518.829339011749,NaN,1,0,,,
267,1,0,4530.jpg,518.841116552524,519.358769883184,520.852881414669,NaN,1,0,,,
268,1,0,4530.jpg,520.864644465582,521.382314701082,523.58231645194,0.682443509915174,1,0,,,
269,1,0,7237.jpg,523.605844968743,524.123497091915,525.217615083463,NaN,1,0,,,
270,1,0,4180.jpg,525.229380549353,525.747034483757,526.14703315552,NaN,1,0,,,
271,1,0,4180.jpg,526.158794395201,526.676469762526,527.876475437722,0.741288046075169,1,0,,,
272,1,0,4003.jpg,527.900025689317,528.417643399068,529.311761149118,NaN,1,0,,,
273,1,0,7820.jpg,529.323529935601,529.841180549413,530.935309408358,NaN,1,0,,,
274,1,0,5535.jpg,530.958842453242,531.476486425867,533.676509005902,NaN,1,0,,,
275,1,0,8050.jpg,533.688269038093,534.205916935056,535.300034926604,NaN,1,0,,,
276,1,0,7830.jpg,535.31180129811,535.829455534387,536.923577752145,NaN,1,0,,,
277,1,0,7830.jpg,536.935342312418,537.45300711422,538.453061149329,0.517739666087436,1,0,,,
278,1,0,2312.jpg,538.464805786043,538.982419269584,539.48831075682,NaN,1,0,,,
279,1,0,8116.jpg,539.500072902117,540.017717478486,540.817719953838,NaN,1,0,,,
280,1,0,4180.jpg,540.829483004751,541.347140863493,541.747136214663,NaN,1,0,,,
281,1,0,5535.jpg,541.758900171191,542.276574934773,543.476562497642,NaN,1,0,,,
282,1,0,9045.jpg,543.488330378508,544.005980086704,544.805992825707,NaN,1,0,,,
283,1,0,4530.jpg,544.817754065387,545.335404377327,546.229520618017,NaN,1,0,,,
284,1,0,4001.jpg,546.241291215732,546.758935792102,547.958942674786,NaN,1,0,,,
285,1,0,7180.jpg,547.970708442548,548.488362376953,548.888373727345,NaN,1,0,,,
286,1,0,7130.jpg,548.90015700369,549.417781958371,550.711925246803,NaN,1,0,,,
287,1,0,7496.jpg,550.7236689779,551.24133076098,553.041328104506,NaN,1,0,,,
288,1,0,7820.jpg,553.053093268523,553.570751127266,554.264886446274,NaN,1,0,,,
289,1,0,6314.jpg,554.276647384082,554.794290149218,556.79433452442,NaN,1,0,,,
290,1,0,4490.jpg,556.806096971589,557.32372766184,557.629595059681,NaN,1,0,,,
291,1,0,7190.jpg,557.65312146338,558.170816754265,559.264899728647,NaN,1,0,,,
292,1,0,4525.jpg,559.27666851513,559.794322449535,559.994317257335,NaN,1,0,,,
293,1,0,4003.jpg,560.006082421352,560.523737261374,561.217855675543,NaN,1,0,,,
294,1,0,7237.jpg,561.229618726456,561.747287150723,561.947271091126,NaN,1,0,,,
295,1,0,2850.jpg,561.959039273865,562.476693812014,563.076701781438,NaN,1,0,,,
296,1,0,4520.jpg,563.100235430066,563.617888458855,564.111993651026,NaN,1,0,,,
297,1,0,4000.jpg,564.123760022531,564.641435691729,565.441411602334,NaN,1,0,,,
298,1,0,7180.jpg,565.453176162608,565.970842775641,566.570839273925,NaN,1,0,,,
299,1,0,4530.jpg,566.582604739815,567.100255655499,567.594368092599,NaN,1,0,,,
300,1,0,4530.jpg,567.606133558489,568.123798058418,569.723822630809,0.753082189817178,1,0,,,
301,1,0,9045.jpg,569.735592021037,570.253214560741,572.547350906114,NaN,1,0,,,
302,1,0,7496.jpg,572.559102485887,573.076770608282,575.476779241824,NaN,1,0,,,
303,1,0,7496.jpg,575.488540179632,576.006192604676,576.700309811357,NaN,0,0,,,
304,1,0,7237.jpg,576.712076182863,577.229742795897,578.523851067163,NaN,1,0,,,
305,1,0,7130.jpg,578.535612608715,579.053271674947,580.147391175855,NaN,1,0,,,
306,1,0,4003.jpg,580.159152113663,580.676821745418,582.076815285355,NaN,1,0,,,
307,1,0,4001.jpg,582.088582562477,582.606270608432,583.406236557257,NaN,1,0,,,
308,1,0,6314.jpg,583.418001419403,583.935658070656,584.229791095437,NaN,1,0,,,
309,1,0,8050.jpg,584.241543580825,584.759217740662,585.959192323029,NaN,1,0,,,
310,1,0,2312.jpg,585.97095929828,586.488614440173,587.088614560922,NaN,1,0,,,
311,1,0,7820.jpg,587.100378819324,587.618033357473,587.81803058025,NaN,1,0,,,
312,1,0,5535.jpg,587.829793631162,588.347462659173,590.747471292716,NaN,1,0,,,
313,1,0,8116.jpg,590.759225287465,591.276883749952,592.476885500811,NaN,1,0,,,
314,1,0,4520.jpg,592.488654287294,593.006323315304,595.500434544917,NaN,1,0,,,
315,1,0,4525.jpg,595.512197293958,596.029879604342,598.029885641785,NaN,1,0,,,
316,1,0,4490.jpg,598.041625750416,598.559279382949,598.759279322575,NaN,1,0,,,
317,1,0,4180.jpg,598.771047505314,599.288711703371,601.088708745024,NaN,1,0,,,
1,1,0,4530.jpg,0.017764872409316,0.535350281843421,2.44100105625057,NaN,1,1,,,
2,1,0,7180.jpg,2.45276501278022,2.97041713595263,3.57043778400566,NaN,1,1,,,
3,1,0,7180.jpg,3.58217970386977,4.09983544950774,5.19395585603252,NaN,0,1,,,
4,1,0,8050.jpg,5.20571951068996,5.72337586007143,8.01749862119959,0.458877319471867,0,1,,,
5,1,0,8050.jpg,8.02926378521715,8.54695454802095,10.3469207987173,0.694197504664771,1,1,,,
6,1,0,7830.jpg,10.3586889814569,10.8763395952683,12.6763453912126,NaN,1,1,,,
7,1,0,4180.jpg,12.6881096496145,13.2057756589038,14.2057653952525,NaN,1,1,,,
8,1,0,4003.jpg,14.21753055927,14.7351832861859,15.7351829843137,NaN,1,1,,,
9,1,0,7130.jpg,15.7469505633089,16.2646041958415,18.0646078786813,NaN,1,1,,,
10,1,0,4520.jpg,18.0763739483155,18.5940284864646,19.888147323255,NaN,1,1,,,
11,1,0,7190.jpg,19.8999348258094,20.4175655160616,22.4175709497595,NaN,1,1,,,
12,1,0,5535.jpg,22.4293352081604,22.9469912556706,24.0411071341141,NaN,1,1,,,
13,1,0,2850.jpg,24.0528738074918,24.5705280437696,25.1705474843338,NaN,1,1,,,
14,1,0,2850.jpg,25.1822924229191,25.6999478666849,27.2999494967944,0.82361159201082,1,1,,,
15,1,0,4490.jpg,27.3117140570685,27.8293679914732,28.0293649123778,NaN,1,1,,,
16,1,0,4000.jpg,28.0411303782676,28.5588063493369,30.2529048399465,NaN,1,1,,,
17,1,0,4525.jpg,30.2646709095807,30.782325749602,31.7823254477298,NaN,1,1,,,
18,1,0,4525.jpg,31.7941099315631,32.3117436405355,33.2058653149243,1.09418440341415,1,1,,,
19,1,0,8116.jpg,33.2176274602207,33.7352865264511,34.4294049406208,NaN,1,1,,,
20,1,0,7496.jpg,34.4411719158707,34.958815586624,36.6529430569562,NaN,1,1,,,
21,1,0,7237.jpg,36.6647045985092,37.1823618535072,38.6764806299225,NaN,1,1,,,
22,1,0,6314.jpg,38.6882491145343,39.2059006339623,40.9000223687244,NaN,1,1,,,
23,1,0,9045.jpg,40.9117878346142,41.4294447877401,42.8294437613749,NaN,1,1,,,
24,1,0,9045.jpg,42.8412092272647,43.3588688972404,45.8529834474466,0.753025135985808,1,1,45.4295410849472,45.5825479878567,
25,1,0,2312.jpg,45.864756762011,46.3824445060936,48.2765341820368,NaN,1,1,,,
26,1,0,2312.jpg,48.2883126284278,48.8059514692268,49.5000701852687,0.811835862468797,1,1,,,
27,1,0,7820.jpg,49.5118341417974,50.0294898874354,51.4294955022569,NaN,1,1,50.7825074766179,,
28,1,0,4001.jpg,51.4412585531691,51.958910072598,54.3589253473265,NaN,1,1,,,
29,1,0,7130.jpg,54.3706832664138,54.8883393139231,57.0883495172011,NaN,1,1,57.0531331156435,,
30,1,0,4180.jpg,57.1001119643697,57.6177640875421,58.5118824413366,NaN,1,1,,,
31,1,0,7820.jpg,58.5236482090986,59.0413024453756,61.2413102336768,NaN,1,1,59.8061063296245,,
32,1,0,4525.jpg,-0.694923507114254,-0.177269874581725,1.02273338563737,NaN,1,1,,,61.9473154663274
33,1,0,7496.jpg,1.03449854965493,1.55215399342069,2.75215574427875,NaN,1,1,,,
34,1,0,8050.jpg,2.76392302140175,3.28157454082975,4.77569452473381,NaN,1,1,,,
35,1,0,4520.jpg,4.78745938687916,5.30511483064493,7.10511972097356,NaN,1,1,,,
36,1,0,7830.jpg,7.1168900168168,7.63455632797923,9.03456858398658,NaN,1,1,,,
37,1,0,7190.jpg,9.0463102019794,9.56396262702401,10.3639620836539,NaN,1,1,,,
38,1,0,4000.jpg,10.3757278514158,10.893383898926,11.7875448166897,NaN,1,1,,,
39,1,0,8116.jpg,11.7992653036335,12.3169246717362,12.5169155551985,NaN,1,1,,,
40,1,0,9045.jpg,12.5286810210882,13.0463295217951,14.2463421400498,NaN,1,1,,,
41,1,0,9045.jpg,14.258102474113,14.7757579178788,14.9757563481435,NaN,0,1,,,
42,1,0,4530.jpg,14.9875236252665,15.5051730315899,15.9992896949007,0.000121654464237508,0,1,,,
43,1,0,6314.jpg,16.0110533495572,16.5287199625918,18.3287139855238,NaN,1,1,,,
44,1,0,7237.jpg,18.3404797532858,18.8581339895627,19.6581361630424,NaN,1,1,,,
45,1,0,7237.jpg,19.6698986102101,20.1875543558481,21.7875605140398,NaN,0,1,,,
46,1,0,4490.jpg,21.7993229612084,22.3169796124621,24.5169861932745,NaN,1,1,,,
47,1,0,2850.jpg,24.528754074141,25.0464064991857,26.0464071029301,NaN,1,1,,,
48,1,0,2312.jpg,26.0581716632032,26.5758258994802,26.7758225185125,NaN,1,1,,,
49,1,0,4001.jpg,26.7875888900189,27.3052425225515,27.5052379340959,NaN,1,1,,,
50,1,0,7180.jpg,27.5170085318114,28.0346603531116,30.3287846235999,NaN,1,1,,,
51,1,0,5535.jpg,30.3405543156996,30.8582046276388,32.2582102424603,NaN,1,1,,,
52,1,0,4003.jpg,32.2699799345601,32.7876302464992,34.0817563282208,NaN,1,1,,,
53,1,0,7830.jpg,34.0935133416906,34.6111687854564,36.6111745210264,NaN,1,1,,,
54,1,0,7190.jpg,36.6229375719395,37.1405957325542,39.2347221765222,NaN,1,1,,,
55,1,0,7496.jpg,39.2464915667488,39.7641503311079,41.8582662095514,NaN,1,1,,,
56,1,0,6314.jpg,41.8700295623366,42.3876952697537,44.4818093369649,NaN,1,1,,,
57,1,0,6314.jpg,44.4936318566852,45.0112311522362,45.2112262619085,NaN,0,1,,,
58,1,0,7180.jpg,45.222987199716,45.7406468696918,47.9406549598643,NaN,1,1,,,
59,1,0,5535.jpg,47.9524201238819,48.4700755676477,50.3641984495243,NaN,1,1,,,
60,1,0,4000.jpg,50.3759642172863,50.8936211704122,51.387735116874,NaN,1,1,,,
61,1,0,2312.jpg,51.3994975640426,51.9171674976697,54.0112797536476,NaN,1,1,,,
62,1,0,7237.jpg,54.0230422008162,54.5407015689198,54.9406966182169,NaN,1,1,,,
63,1,0,4001.jpg,54.9524617822344,55.470118433489,56.0701318366109,NaN,1,1,,,
64,1,0,4003.jpg,56.0818810014061,56.5995388601486,56.8936510557523,NaN,1,1,,,
65,1,0,4530.jpg,56.9054144085367,57.4230949076882,59.423074984129,NaN,1,1,,,
66,1,0,8050.jpg,59.4348443743556,59.9524977050169,61.4466195001542,NaN,1,1,,,
67,1,0,4490.jpg,61.4583852679152,61.9760431266586,63.0701580994855,NaN,1,1,,,
68,1,0,4180.jpg,63.0819277915843,63.5995883671767,65.8937075058384,NaN,1,1,,,
69,1,0,2850.jpg,65.9054696511348,66.423125698645,67.0231240081612,0.929503199995452,0,1,66.0702441330395,,
70,1,0,8116.jpg,-1.17668907262123,-0.659037855065435,0.635084302317409,NaN,1,1,,,68.2114529678702
71,1,0,7130.jpg,0.646849768207176,1.16450309886841,1.76450171025681,NaN,1,1,,,
72,1,0,4525.jpg,1.77627019486772,2.29393258169239,3.49392346515378,NaN,1,1,,,
73,1,0,7820.jpg,3.50569315725352,4.02334407293711,5.22334642753958,NaN,1,1,,,
74,1,0,9045.jpg,5.23511430840608,5.75277065778846,6.64688357788509,NaN,1,1,,,
75,1,0,4520.jpg,6.65865357185703,7.17630448754062,8.57630889487336,NaN,1,1,,,
76,1,0,7496.jpg,8.58807254953081,9.1057436906467,9.50576651217852,NaN,1,1,,,
77,1,0,7820.jpg,9.5175458641861,10.0351581402383,12.4351824711312,NaN,1,1,,,
78,1,0,7180.jpg,12.4469349565197,12.9645846647154,14.7645823101129,NaN,1,1,,,
79,1,0,6314.jpg,14.776345361026,15.294001106663,16.7881232036725,NaN,1,1,,,
80,1,0,5535.jpg,16.7998892733067,17.317542603967,18.1175420605969,NaN,1,1,,,
81,1,0,7830.jpg,18.1293078283588,18.6469626683802,19.341088327481,NaN,1,1,,,
82,1,0,7237.jpg,19.3528441334629,19.8705004828444,20.8705035015655,NaN,1,1,,,
83,1,0,8050.jpg,20.8822668543507,21.3999201850111,23.0940449384952,NaN,1,1,,,
84,1,0,4490.jpg,23.1058113100016,23.6234640369175,26.0234548600056,NaN,1,1,,,
85,1,0,7190.jpg,26.03525232434,26.5528932782436,27.0470102434265,NaN,1,1,,,
86,1,0,4000.jpg,27.0587748037005,27.5764317568264,28.4705476956442,NaN,1,1,,,
87,1,0,2850.jpg,28.4823128596618,28.9999698127876,30.494093117286,NaN,1,1,,,
88,1,0,2850.jpg,30.505860394408,31.0235107063472,31.3176256187999,NaN,0,1,,,
89,1,0,4530.jpg,31.3293901790739,31.8470634332944,32.4470430267393,NaN,1,1,,,
90,1,0,7130.jpg,32.458806983268,32.9764639363948,34.4705857315312,NaN,1,1,,,
91,1,0,4525.jpg,34.4823518011654,35.0000060374423,35.6000052525751,NaN,1,1,,,
92,1,0,2312.jpg,35.6117676997437,36.1294409539641,36.9294268263493,NaN,1,1,,,
93,1,0,9045.jpg,36.9411895753901,37.4588758101117,38.4588453210272,NaN,1,1,,,
94,1,0,4003.jpg,38.4706116925336,38.9882758905906,39.1882634534595,NaN,1,1,,,
95,1,0,4520.jpg,39.2000255987559,39.7176961361274,40.9176861139731,NaN,1,1,39.470668746364,,
96,1,0,4001.jpg,40.9294518817351,41.4471049105241,42.3412262830398,NaN,1,1,,,
97,1,0,8116.jpg,42.352988126464,42.8706698331043,44.7647709801877,NaN,1,1,,,
98,1,0,4180.jpg,44.7765334273563,45.2941864561453,46.6941932784548,NaN,1,1,,,
99,1,0,4180.jpg,46.7059617630657,47.2236271686115,49.0236187765668,0.717731455165449,1,1,,,
100,1,0,8116.jpg,49.0353917892598,49.5530396862223,49.8471530893139,NaN,1,1,,,
101,1,0,4490.jpg,49.8589179514593,50.3765758102018,52.7765835381288,NaN,1,1,,,
102,1,0,4490.jpg,52.7883484002741,53.3060026365511,54.6001244920626,NaN,0,1,,,
103,1,0,7130.jpg,54.6118875429756,55.1295614009405,55.9295466695812,NaN,1,1,,,
104,1,0,7180.jpg,55.9413094186211,56.4589645605147,58.8589753071628,NaN,1,1,,,
105,1,0,4000.jpg,58.8707392636916,59.3883968205619,61.2825221174153,NaN,1,1,,,
106,1,0,4001.jpg,-2.34164467779829,-1.82398651718358,0.176016803409766,NaN,1,1,62.8708509563767,,63.6355624677562
107,1,0,7820.jpg,0.187785589892883,0.705437713065294,3.19956645126058,NaN,1,1,,,
108,1,0,7820.jpg,3.21133040779023,3.72899671895175,6.12899750381985,0.917749808990266,1,1,,,
109,1,0,4180.jpg,6.14076025285976,6.65841750785876,7.85841865497241,NaN,1,1,,,
110,1,0,6314.jpg,7.87018895081656,8.38785767695481,9.08195465820336,NaN,1,1,,,
111,1,0,6314.jpg,9.09371952034962,9.61137768096432,10.2113738773751,NaN,0,1,,,
112,1,0,4530.jpg,10.2231390413926,10.7407965982638,11.6349137445695,0.0235991548788661,0,1,,,
113,1,0,7496.jpg,11.6466819273082,12.1643343523529,14.6584618830602,NaN,1,1,,,
114,1,0,4525.jpg,14.6702279526944,15.1878815852269,17.1878909432626,NaN,1,1,,,
115,1,0,7237.jpg,17.19965882413,17.7173106454302,19.6114347347948,NaN,1,1,,,
116,1,0,2850.jpg,19.6231998988123,20.1408695305681,22.2349911445817,NaN,1,1,,,
117,1,0,4520.jpg,22.246746044947,22.7644005830962,24.4585256384516,NaN,1,1,,,
118,1,0,8050.jpg,24.4702932174469,24.9879456424915,26.5879508950657,NaN,1,1,,,
119,1,0,5535.jpg,26.6114812231017,27.129134553762,27.3291329840267,NaN,1,1,,,
120,1,0,7830.jpg,27.3409008648941,27.8585508749611,28.9526703758702,NaN,1,1,,,
121,1,0,2312.jpg,28.9644379548645,29.4820921911414,31.682101790675,NaN,1,1,,,
122,1,0,9045.jpg,31.6938684640536,32.2115193797372,34.5056478764354,NaN,1,1,,,
123,1,0,4003.jpg,34.5174160591741,35.0350690879632,36.6351111689364,NaN,1,1,,,
124,1,0,7190.jpg,36.6468506738238,37.1644949483207,38.1645320785919,NaN,1,1,,,
125,1,0,7820.jpg,38.1762906014228,38.6939240085239,39.9880359022554,NaN,1,1,,,
126,1,0,4520.jpg,39.9998004625286,40.5174559062943,41.4115730526,NaN,1,1,,,
127,1,0,7237.jpg,41.4233409334674,41.9409966791045,44.4351233041953,NaN,1,1,,,
128,1,0,9045.jpg,44.4468863551083,44.9645520625263,46.9645511569097,NaN,1,1,,,
129,1,0,9045.jpg,46.9763126984617,47.4939708590764,49.0939758097793,NaN,0,1,,,
130,1,0,4003.jpg,49.1057611992292,49.6233958138182,50.1175136846177,NaN,1,1,,,
131,1,0,7180.jpg,50.1292824711009,50.6469354998899,51.9410531291915,NaN,1,1,,,
132,1,0,4001.jpg,51.9528219156746,52.4704743407192,54.964605192019,NaN,1,1,,,
133,1,0,2850.jpg,54.9763637148508,55.4940227810812,57.3881462667023,NaN,1,1,,,
134,1,0,5535.jpg,-2.40023956571531,-1.88260344176524,0.317405855896141,NaN,1,1,58.5764697927134,,59.8000076071776
135,1,0,7496.jpg,0.329169208681378,0.84683672733172,2.24682875790768,NaN,1,1,,,
136,1,0,6314.jpg,2.25859392192524,2.77625147879553,4.87037399842575,NaN,1,1,,,
137,1,0,2312.jpg,4.88214036993213,5.39982177470029,6.39979732305801,NaN,1,1,,,
138,1,0,7190.jpg,6.41157637319338,6.92925355175157,8.72922433053009,NaN,1,1,,,
139,1,0,8116.jpg,8.74099160765309,9.25864493831341,9.85868037810087,NaN,1,1,,,
140,1,0,7130.jpg,9.870430750384,10.3880641574851,11.4821839602664,NaN,1,1,,,
141,1,0,4530.jpg,11.4939542561096,12.0116030586887,14.5057308912683,NaN,1,1,,,
142,1,0,4525.jpg,14.5174996777514,15.0351789694141,17.1292782448909,NaN,1,1,,,
143,1,0,4490.jpg,17.1410461257574,17.6587151537688,18.1528146103692,NaN,1,1,,,
144,1,0,7830.jpg,18.1645776612813,18.6822334069193,19.376351821089,NaN,1,1,,,
145,1,0,4000.jpg,19.3881194000833,19.9057715232557,21.9998973634783,NaN,1,1,,,
146,1,0,8050.jpg,22.0116857716494,22.5293182731339,23.5293224993438,NaN,1,1,,,
147,1,0,4180.jpg,23.5411549808441,24.0587678606407,25.9646287380447,NaN,1,1,,,
148,1,0,7830.jpg,25.9763957132946,26.4940786274237,26.7881721069552,NaN,1,1,,,
149,1,0,4000.jpg,26.799933346636,27.3175881866573,27.5175799757353,NaN,1,1,,,
150,1,0,8116.jpg,27.5293439322641,28.0470045078564,29.541164640752,NaN,1,1,,,
151,1,0,4180.jpg,29.5528932782436,30.070543892055,30.5646605553657,NaN,1,1,,,
152,1,0,4180.jpg,30.5764227006621,31.0940769369399,32.094081163149,0.776559388358692,1,1,,,
153,1,0,2312.jpg,32.1058472327832,32.6235011671879,33.6235322600169,NaN,1,1,,,
154,1,0,9045.jpg,33.6353200644435,34.15292298246,34.4588042664191,NaN,1,1,,,
155,1,0,7237.jpg,34.4705658079711,34.988221553609,36.8823456429736,NaN,1,1,,,
156,1,0,4001.jpg,36.8941126182244,37.4117753069204,39.0118056148813,NaN,1,1,,,
157,1,0,4490.jpg,39.0235677601777,39.5412032803833,41.5412008654066,NaN,1,1,,,
158,1,0,7190.jpg,41.5529636144474,42.0706193600854,44.1647448984368,NaN,1,1,,,
159,1,0,7496.jpg,44.1765100624543,44.6941664118358,46.294231133219,NaN,1,1,,,
160,1,0,5535.jpg,46.3060116927145,46.8235922721942,48.2235954720391,NaN,1,1,,,
161,1,0,4525.jpg,48.2353624472889,48.7530266453459,49.2471327431331,NaN,1,1,,,
162,1,0,4003.jpg,49.2589003221274,49.776552747172,51.7765608977188,NaN,1,1,,,
163,1,0,7130.jpg,51.7883233448874,52.3059818073743,52.5059772189179,NaN,1,1,,,
164,1,0,7820.jpg,52.5177466091454,53.035397524829,55.129523968797,NaN,1,1,,,
165,1,0,2850.jpg,55.1412924534079,55.6589433690915,55.9530585834164,NaN,1,1,,,
166,1,0,4520.jpg,55.9648306904928,56.4824813043042,56.7765925942913,NaN,1,1,,,
167,1,0,8050.jpg,56.7883550414599,57.3060116927145,57.6001329444816,NaN,1,1,,,
168,1,0,7180.jpg,57.6118975047548,58.1295583822184,59.3295519825297,NaN,1,1,,,
169,1,0,4530.jpg,59.3413150334427,59.8589759109063,60.2589682433545,NaN,1,1,,,
170,1,0,6314.jpg,60.2824988732618,60.8001639769354,63.0001618034557,NaN,1,1,,,
171,1,0,6314.jpg,63.0119260618576,63.5295836187279,65.0237066213531,1.52951026380288,1,1,,,
172,1,0,4000.jpg,65.0354702760105,65.5531248141597,66.7531265650177,NaN,1,1,,,
173,1,0,4530.jpg,66.7648905215474,67.2825495877778,69.1766797145856,NaN,1,1,,,
174,1,0,7180.jpg,69.188441859882,69.7061051523233,70.7060982092644,NaN,1,1,,,
175,1,0,7190.jpg,70.7178594489442,71.2355154964544,71.6355244318684,NaN,1,1,70.964969249796,,
176,1,0,7237.jpg,-0.0827386200999172,0.434930106039246,1.83491972163756,NaN,1,1,,,71.7298220373286
177,1,0,8116.jpg,1.84668458378383,2.36435995110878,2.56439188917921,NaN,1,1,,,
178,1,0,4180.jpg,2.57615765694118,3.09376932924988,4.99964801710757,NaN,1,1,,,
179,1,0,8050.jpg,5.0114107661484,5.52906741740298,7.42319301612861,NaN,1,1,,,
180,1,0,6314.jpg,7.43495606704164,7.95261090706299,9.84673620391641,NaN,1,1,,,
181,1,0,7130.jpg,9.85849985857294,10.3761586229321,11.0703017906153,NaN,1,1,,,
182,1,0,4525.jpg,11.0820787276452,11.5996943242908,12.5055778421038,NaN,1,1,,,
183,1,0,7820.jpg,12.5173408930168,13.0349963367817,14.52911964128,NaN,1,1,,,
184,1,0,9045.jpg,14.5409002007755,15.0585408528068,15.8585375925886,NaN,1,1,,,
185,1,0,9045.jpg,15.870364640391,16.3879612190931,16.6938391824579,0.800032964435559,1,1,,,
186,1,0,4003.jpg,16.7056055539642,17.223259488369,18.2232612996022,NaN,1,1,,,
187,1,0,2312.jpg,18.2467925332539,18.7644482788919,19.7644488826354,NaN,1,1,,,
188,1,0,4520.jpg,19.7762131410373,20.2938722072677,21.6939252160128,NaN,1,1,,,
189,1,0,7496.jpg,21.7056656265158,22.2233035616991,22.9174083916223,NaN,1,1,,,
190,1,0,7496.jpg,22.9291741593843,23.4468386593135,24.3409555037479,0.623623123525249,1,1,,,
191,1,0,7496.jpg,24.3527185546609,24.8703685647279,26.0703715230748,NaN,0,1,,,
192,1,0,4001.jpg,26.0821532900591,26.5997933383469,28.3997997380357,1.44714596513222,0,1,,,
193,1,0,2850.jpg,28.4115636945653,28.9292218551791,29.8233371902534,NaN,1,1,,,
194,1,0,5535.jpg,29.8351017505265,30.3527580999089,32.5528286776098,NaN,1,1,,,
195,1,0,4490.jpg,32.5763321390268,33.0939516600101,33.5880677195764,NaN,1,1,,,
196,1,0,7830.jpg,33.5998352985716,34.1174871198718,34.8116043265527,NaN,1,1,,,
197,1,0,4490.jpg,34.8233737167793,35.3410249343351,37.8351554837636,NaN,1,1,,,
198,1,0,2312.jpg,37.8469203459099,38.3645721672101,40.5645923322672,NaN,1,1,,,
199,1,0,2312.jpg,40.5763541756914,41.0940286374007,41.3881203056999,0.717731757037654,1,1,,,
200,1,0,6314.jpg,41.3998818472528,41.9175487621587,42.4116536524571,0.047128879169577,0,1,,,
201,1,0,6314.jpg,42.4234188164746,42.9410748639839,44.6352014287004,0.858913725249295,1,1,43.8940999395954,,
202,1,0,7237.jpg,44.646963875869,45.1646214327393,46.1646190177626,NaN,1,1,,,
203,1,0,4520.jpg,46.1763844836523,46.6940399274181,48.894051338184,NaN,1,1,,,
204,1,0,4520.jpg,48.9058134834804,49.423470134735,50.0234657274023,NaN,0,1,,,
205,1,0,4000.jpg,50.0470014891353,50.5646548197965,53.058779633654,NaN,1,1,,,
206,1,0,4000.jpg,53.0705466089048,53.5882102032174,54.8823284362634,0.917745884652504,1,1,54.447107627373,,
207,1,0,7180.jpg,54.8940932984087,55.4117541758724,57.30586860533,NaN,1,1,,,
208,1,0,7496.jpg,57.3176331656032,57.8352916280901,58.6352886697432,NaN,1,1,,,
209,1,0,4525.jpg,-1.30614029023855,-0.78846763976162,0.81152161359114,NaN,1,1,59.4942389215203,,59.9530305093094
210,1,0,7130.jpg,0.823285570119879,1.34094161763005,2.54094548159264,NaN,1,1,,,
211,1,0,7190.jpg,2.56447248903532,3.08212763092797,5.17625558425698,NaN,1,1,,,
212,1,0,4003.jpg,5.18802014453013,5.70567347519045,7.39985437688847,NaN,1,1,,,
213,1,0,7820.jpg,7.41160022109125,7.92921823271354,10.2233446163063,NaN,1,1,,,
214,1,0,9045.jpg,10.2351094784526,10.7527824308008,11.6468868984775,NaN,1,1,,,
215,1,0,4180.jpg,11.6586626280196,12.1763056950285,13.4704266449235,NaN,1,1,,,
216,1,0,2850.jpg,13.4821912051966,13.9998457433458,14.3998589049706,NaN,1,1,,,
217,1,0,4001.jpg,14.4116180315459,14.9292777015216,15.2233787278565,NaN,1,1,,,
218,1,0,5535.jpg,15.235146608723,15.7527984300232,16.0469118331148,NaN,1,1,,,
219,1,0,7830.jpg,16.0586772990046,16.5763345540036,17.9763371501031,NaN,1,1,,,
220,1,0,8116.jpg,17.9881065403306,18.5057553429097,20.3998824509963,NaN,1,1,,,
221,1,0,8050.jpg,20.4234091565659,20.9410854295074,23.1410793316909,NaN,1,1,,,
222,1,0,4530.jpg,23.1528454013251,23.6704963170087,24.3646162405385,NaN,1,1,,,
223,1,0,6314.jpg,24.3763777820905,24.8940356408339,25.5881510362815,NaN,1,1,,,
224,1,0,5535.jpg,25.5999174077879,26.1175816058449,26.7175714629411,NaN,1,1,,,
225,1,0,7496.jpg,26.7293354194708,27.2469911651087,29.141124612509,NaN,1,1,,,
226,1,0,4000.jpg,29.1528810222353,29.6705479371412,30.4705679210756,NaN,1,1,,,
227,1,0,8050.jpg,30.4823351981986,30.9999568322864,32.9999658884499,NaN,1,1,,,
228,1,0,9045.jpg,33.0117286374907,33.5293870999776,34.8235041255348,NaN,1,1,,,
229,1,0,7130.jpg,34.835270195169,35.3529238277024,35.5529213523505,NaN,1,1,,,
230,1,0,7130.jpg,35.5646880257291,36.0823419601338,37.1764632722752,0.835384604702995,1,1,,,
231,1,0,2850.jpg,37.1882266250605,37.7058790501051,37.999998490639,NaN,1,1,37.3176914269225,,
232,1,0,2850.jpg,38.0117618434242,38.5294184946779,40.0235384785819,NaN,0,1,,,
233,1,0,4180.jpg,40.0353048500883,40.5529605957263,41.6470800966354,NaN,1,1,,,
234,1,0,7830.jpg,41.6588446569085,42.1765182130011,43.5765063192393,NaN,1,1,,,
235,1,0,4530.jpg,43.5882835581424,44.1059242101737,45.6000469109276,NaN,1,1,,,
236,1,0,4001.jpg,45.6118111693286,46.1294931778411,46.9294660697242,NaN,1,1,,,
237,1,0,7820.jpg,46.9412309318695,47.4588975449042,47.9530018314581,NaN,1,1,,,
238,1,0,4003.jpg,47.9647663917312,48.4824227411136,48.8824205072597,NaN,1,1,,,
239,1,0,7190.jpg,48.8941859731494,49.4118405112986,50.8118446167591,NaN,1,1,,,
240,1,0,8116.jpg,50.8236085732888,51.3412760919391,52.3413201652684,NaN,1,1,,,
241,1,0,2312.jpg,52.3530454821666,52.8706870398146,55.3648163817543,NaN,1,1,,,
242,1,0,4520.jpg,55.3883436910683,55.9059979273461,56.9059979273461,NaN,1,1,,,
243,1,0,7237.jpg,56.9295412358824,57.4471975852639,58.7413076677631,NaN,1,1,,,
244,1,0,4525.jpg,58.7530767561184,59.270726162441,60.4707390825679,NaN,1,1,,,
245,1,0,7180.jpg,60.482499416632,61.0001530491645,61.4001468909737,NaN,1,1,,,
246,1,0,4490.jpg,61.4119165830725,61.9295681025005,63.2236899580121,NaN,1,1,,,
247,1,0,4520.jpg,63.2354533107973,63.7531096601788,66.1531188974659,NaN,1,1,,,
248,1,0,4520.jpg,-2.35321996425228,-1.83555244560193,0.364446890279396,0.976582874010091,1,1,67.7532177303983,,68.5179398073024
249,1,0,4530.jpg,0.376210243064634,0.893867799934924,1.69386604907686,NaN,1,1,,,
250,1,0,4530.jpg,1.70563121309442,2.22328695873239,4.42329384141613,0.894206198581742,1,1,,,
251,1,0,7830.jpg,4.43505930730589,4.95271626043268,7.24684204028108,NaN,1,1,,,
252,1,0,2850.jpg,7.25860931740408,7.77628709970668,8.3762612594528,NaN,1,1,,,
253,1,0,2850.jpg,8.38807230803286,8.90568126349172,10.1998025152589,0.788294063292597,1,1,,,
254,1,0,7237.jpg,10.2115676792764,10.7292231230422,12.3292289793617,NaN,1,1,,,
255,1,0,7237.jpg,12.340992332146,12.8586489834006,14.3527704766657,0.964794767711282,1,1,,,
256,1,0,7190.jpg,14.364535338811,14.8821925938091,16.6821995972423,NaN,1,1,,,
257,1,0,7180.jpg,16.6939668743653,17.2116162806878,17.8116170051808,NaN,1,1,,,
258,1,0,4525.jpg,17.823381867327,18.3410370092206,20.6352267859584,NaN,1,1,,,
259,1,0,8116.jpg,20.6469454616699,21.1645843024689,22.2587041052493,NaN,1,1,,,
260,1,0,7496.jpg,22.2704725898611,22.7881207886958,23.7881225999281,NaN,1,1,,,
261,1,0,4490.jpg,23.7998904807946,24.3175579994449,26.7175578786964,NaN,1,1,,,
262,1,0,4180.jpg,26.7293212314817,27.2470337290779,27.7410969610237,NaN,1,1,,,
263,1,0,8050.jpg,27.7528633325292,28.2705284362028,29.5647918697387,NaN,1,1,,,
264,1,0,2312.jpg,29.576410022034,30.0940549002753,32.5881954114839,NaN,1,1,,,
265,1,0,5535.jpg,32.6117094384244,33.1293832963893,35.4234957938652,NaN,1,1,,,
266,1,0,4000.jpg,35.4352657878362,35.9529142885431,37.6470571543541,NaN,1,1,,,
267,1,0,6314.jpg,37.6706300463584,38.1882245119559,39.6941108673664,NaN,1,1,,,
268,1,0,7820.jpg,39.7058784463607,40.2235441537787,41.3176552022678,NaN,1,1,40.9883284163398,41.1412652849176,
269,1,0,4003.jpg,41.3294200644141,41.8470730932022,43.2471233850974,NaN,1,1,,,
270,1,0,9045.jpg,43.2706084323145,43.7882605554869,44.8823833769893,NaN,1,1,,,
271,1,0,4001.jpg,44.8941479372625,45.4118015697959,47.9059284967589,NaN,1,1,,,
272,1,0,4001.jpg,47.9176918495432,48.43534880267,49.1294651037342,1.17656319194793,1,1,,,
273,1,0,7130.jpg,49.1412357014497,49.6589041257166,50.3530041256863,NaN,1,1,,,
274,1,0,7130.jpg,50.3647668747271,50.8824337896331,52.6824302275427,0.870679191139971,1,1,,,
275,1,0,4000.jpg,52.6941944859436,53.2118487222206,53.8118509560745,NaN,1,1,53.2236905617574,,
276,1,0,7496.jpg,53.823614610732,54.3412700544968,56.5412769371815,NaN,1,1,,,
277,1,0,8050.jpg,56.5530439124323,57.0706990543258,58.7648219965768,NaN,1,1,57.2001940433993,,
278,1,0,7190.jpg,58.7765868587221,59.2942420006157,60.4942455627061,NaN,1,1,,,
279,1,0,4003.jpg,-0.517916563149811,-0.000250855731792399,1.59974413319105,NaN,1,1,,,61.0237494871953
280,1,0,7830.jpg,1.61151322154637,2.12917892896348,3.0232836985133,NaN,1,1,,,
281,1,0,7830.jpg,3.03504825878645,3.55271275871564,4.15270774763849,0.941268364013013,1,1,,,
282,1,0,7820.jpg,4.16446657234155,4.68212382733964,6.28212606119359,NaN,1,1,,,
283,1,0,4530.jpg,6.30565548361301,6.82331424797121,9.31744087306197,NaN,1,1,,,
284,1,0,4001.jpg,9.32920543333603,9.84688472499874,10.046857194262,NaN,1,1,,,
285,1,0,7237.jpg,10.0586265844886,10.5762796132776,12.9762885486925,NaN,1,1,,,
286,1,0,5535.jpg,12.9880537127101,13.5057094583481,14.3057089149779,NaN,1,1,,,
287,1,0,5535.jpg,14.3174725696354,14.8351286171446,16.9292701547183,1.12950374336469,1,1,,,
288,1,0,8116.jpg,16.9410223382347,17.4586753670237,19.8586852080543,NaN,1,1,,,
289,1,0,7180.jpg,19.8822125173692,20.3998706779839,20.7998678403856,NaN,1,1,,,
290,1,0,4525.jpg,20.8116363249965,21.3292884481689,23.423413684648,NaN,1,1,,,
291,1,0,4490.jpg,23.4351824711312,23.952835198048,25.9528418392347,NaN,1,1,,,
292,1,0,7130.jpg,25.9646275305558,26.4822633526337,26.8822740992809,NaN,1,1,,,
293,1,0,2312.jpg,26.8940289996472,27.4116817265631,28.8117341315638,NaN,1,1,,,
294,1,0,6314.jpg,28.8234793720212,29.3411139866103,30.7411087340361,NaN,1,1,,,
295,1,0,4180.jpg,30.7528757092859,31.2705275305862,33.2705380961106,NaN,1,1,,,
296,1,0,9045.jpg,33.2823005432792,33.7999689675462,36.1999667336922,NaN,1,1,,,
297,1,0,4520.jpg,36.223497967344,36.7411549204699,37.1411508753836,NaN,1,1,,,
298,1,0,2850.jpg,37.1529284161588,37.6705705775503,37.8705668947105,NaN,1,1,,,
299,1,0,7190.jpg,37.8823299456235,38.3999881062382,39.200004467707,NaN,1,1,,,
300,1,0,4525.jpg,39.2117521231421,39.7294072650357,40.3294067820398,NaN,1,1,,,
301,1,0,9045.jpg,40.3411695310806,40.8588430871732,41.1529404910434,NaN,1,1,,,
302,1,0,4490.jpg,41.164705655061,41.6823716643503,42.8823643590458,NaN,1,1,,,
303,1,0,5535.jpg,42.8941271080857,43.4117846649569,45.9059112900477,NaN,1,1,,,
304,1,0,4520.jpg,45.9176761521931,46.4353325015745,47.3294541759633,NaN,1,1,46.4942359027982,,
305,1,0,7496.jpg,47.3412187362364,47.8588714631533,48.5529883679619,NaN,1,1,,,
306,1,0,4530.jpg,48.5647523244907,49.0824074663842,51.4824179111592,NaN,1,1,,,
307,1,0,4530.jpg,51.4941818676889,52.0118382170704,53.6118440733899,NaN,0,1,,,
308,1,0,8050.jpg,53.623612859873,54.1412661905333,56.0353887705378,NaN,1,1,,,
309,1,0,4000.jpg,56.0471581607653,56.5648102839377,57.8589318375771,NaN,1,1,,,
310,1,0,2312.jpg,57.8706936810013,58.3883741801528,58.9883483398999,NaN,1,1,,,
311,1,0,7237.jpg,59.0001141076609,59.5177650233454,61.6118947879058,NaN,1,1,,,
312,1,0,4003.jpg,61.6236626687733,62.1413159994336,63.8354419604057,NaN,1,1,63.6237577584907,,
313,1,0,8116.jpg,-0.235475045590647,0.282199416118601,0.882176896458077,NaN,1,1,,,64.0825608174209
314,1,0,7180.jpg,0.893936928649964,1.41160806976586,2.21159635712775,NaN,1,1,,,
315,1,0,7830.jpg,2.23512789265169,2.7527806195676,4.55278852861738,NaN,1,1,,,
316,1,0,7130.jpg,4.56455278701924,5.08220611767956,5.6822071440447,NaN,1,1,,,
317,1,0,4001.jpg,5.70574652824416,6.22339110461326,7.22339201022987,NaN,1,1,,,
318,1,0,4180.jpg,7.23515989109637,7.7528135236289,8.35281153127289,NaN,1,1,,,
319,1,0,7820.jpg,8.36458122337262,8.88223244092842,9.68223250130268,NaN,1,1,,,
320,1,0,6314.jpg,9.69399464659909,10.2116522034703,11.505771342132,NaN,1,1,,,
321,1,0,2850.jpg,11.5175356005338,12.0352064397775,13.5293149525405,NaN,1,1,,,
322,1,0,8116.jpg,13.5410795128146,14.0587355603238,16.5528655060079,NaN,1,1,,,
323,1,0,4000.jpg,16.5646297644098,17.0822830950701,18.4822896155083,NaN,1,1,,,
324,1,0,4490.jpg,18.4940502514437,19.0117090158028,20.3058302675699,NaN,1,1,,,
325,1,0,9045.jpg,20.3175942240996,20.8352496678644,23.2352610182561,NaN,1,1,,,
326,1,0,9045.jpg,23.2470240691691,23.7646828335282,25.7646885690983,1.07068033825362,1,1,,,
327,1,0,4525.jpg,25.7764534312446,26.3058891326336,28.5882361642189,NaN,1,1,,,
328,1,0,4180.jpg,28.6000010263651,29.1176576776188,31.1176673375267,NaN,1,1,,,
329,1,0,4001.jpg,31.1294285772065,31.6470849265888,32.7412038237535,NaN,1,1,,,
330,1,0,4001.jpg,32.7529680821544,33.2706250352812,34.9647461662989,0.741261481329275,1,1,,,
331,1,0,7190.jpg,34.9765161602709,35.4941655665943,36.5882859731191,NaN,1,1,,,
332,1,0,4530.jpg,36.6000517408811,37.1177083921348,37.9177102637423,NaN,1,1,,,
333,1,0,7237.jpg,37.9294736165275,38.4471305696534,39.6471302074069,NaN,1,1,,,
334,1,0,7237.jpg,39.6588947676801,40.1765511170624,41.070700563685,NaN,0,1,39.764850372555,,
335,1,0,8050.jpg,41.0824340311301,41.6000891730237,42.4942048099692,NaN,1,1,,,
336,1,0,2850.jpg,42.5059714833478,43.0236290402181,44.6236327834322,NaN,1,1,,,
337,1,0,7496.jpg,44.6354030792763,45.1530542968321,45.7530526063483,NaN,1,1,,,
338,1,0,7496.jpg,45.7648159591336,46.2824668748171,46.4824755687341,0.576563674942918,1,1,,,
339,1,0,7830.jpg,46.4942307709716,47.0118898372029,48.3060101833535,NaN,1,1,,,
340,1,0,5535.jpg,48.3177874222565,48.8354307911368,49.6354296440231,NaN,1,1,,,
341,1,0,6314.jpg,49.6471942042963,50.1648505536787,50.4589633530259,NaN,1,1,,,
342,1,0,6314.jpg,50.4707288189156,50.9883848664258,53.1883941640872,0.917737130361274,1,1,,,
343,1,0,4003.jpg,53.200156913128,53.7178147718705,54.5178145303726,NaN,1,1,,,
344,1,0,7820.jpg,54.5295772794134,55.0472351381559,56.4472374323841,NaN,1,1,,,
345,1,0,7130.jpg,56.4590004832971,56.9766586439118,58.0707772392043,NaN,1,1,,,
346,1,0,7180.jpg,58.0825478369197,58.6001993563477,60.2002263437153,NaN,1,1,59.6473469515895,,
347,1,0,4520.jpg,-0.0472369493891165,0.470416683143412,2.0704213319741,NaN,1,1,,,60.2590926146677
348,1,0,2312.jpg,2.08219132594604,2.59986367454985,3.39983958515495,NaN,1,1,,,
349,1,0,4003.jpg,3.41160625853354,3.92926532476395,5.82338428230287,NaN,1,1,,,
350,1,0,7180.jpg,5.83514823883252,6.35280881442395,8.24693139442843,NaN,1,1,,,
351,1,0,4000.jpg,8.25869474721367,8.7763550209329,10.6704763934486,NaN,1,1,,,
352,1,0,8050.jpg,10.6822388406172,11.1998994162095,11.6940103439492,NaN,1,1,,,
353,1,0,7237.jpg,11.7057755079677,12.2234354798147,12.6234284160073,NaN,1,1,,,
354,1,0,7190.jpg,12.6351914669203,13.1528617024196,14.8469728716573,NaN,1,1,,,
355,1,0,7830.jpg,14.8587404506525,15.3764031393484,17.6705201649065,NaN,1,1,,,
356,1,0,7130.jpg,17.6822853289241,18.1999419801778,19.8940652243009,NaN,1,1,,,
357,1,0,7130.jpg,19.9058294827028,20.4234894545498,21.9176073253493,0.741266613154039,1,1,,,
358,1,0,2312.jpg,21.9293848661237,22.4470514791583,24.3411541356027,NaN,1,1,,,
359,1,0,7820.jpg,24.3529144696658,24.8705720265361,26.1646920708154,NaN,1,1,,,
360,1,0,4525.jpg,26.1882217951061,26.7058790501042,27.3058749446436,NaN,1,1,,,
361,1,0,4490.jpg,27.3176446367434,27.8352931374502,28.835297061788,NaN,1,1,,,
362,1,0,4490.jpg,28.8470649426545,29.3647203864202,30.6588392232097,0.823618535068817,1,1,,,
363,1,0,8116.jpg,30.6706445362197,31.1882613403541,33.6823885691892,NaN,1,1,,,
364,1,0,9045.jpg,33.6941555444391,34.2118079694837,35.8118126183144,NaN,1,1,,,
365,1,0,5535.jpg,35.8235780842042,36.3412359429467,36.9412321393584,NaN,1,1,,,
366,1,0,4530.jpg,36.9647706179412,37.4824182130315,38.8824220166198,NaN,1,1,,,
367,1,0,4530.jpg,38.8941856712772,39.411845341252,40.2118420810339,1.02362300277582,1,1,,,
368,1,0,4001.jpg,40.2236096600282,40.7412626888172,42.635382853844,NaN,1,1,,,
369,1,0,7496.jpg,42.6471549609205,43.1648070840929,43.3648040049975,NaN,1,1,,,
370,1,0,7496.jpg,43.3765670559105,43.8942237071642,44.588339404484,0.670688005805459,1,1,,,
371,1,0,2850.jpg,44.6001087947116,45.1177880863752,47.1177702759196,NaN,1,1,44.8119209904062,,
372,1,0,4520.jpg,47.1295330249604,47.6471972230174,49.4472057358116,NaN,1,1,,,
373,1,0,4180.jpg,49.4589702960848,49.9766151743261,52.3766262228455,NaN,1,1,,,
374,1,0,6314.jpg,52.388404065493,52.9060477362455,55.4001737575918,NaN,1,1,,,
375,1,0,6314.jpg,55.4119380159937,55.9295940635029,57.5296011273113,1.02365349186039,1,1,,,
376,1,0,6314.jpg,57.5413629707355,58.0590323006181,59.0590211313502,0.88245854314664,1,1,,,
377,1,0,8116.jpg,59.0707841822623,59.5884447578546,60.1884391430331,NaN,1,1,,,
378,1,0,7190.jpg,-2.0472825320785,-1.52962406959159,0.670383416836557,NaN,1,1,61.7885500508501,,62.2473618640715
379,1,0,7830.jpg,0.682147071494001,1.19980191151535,1.49391622022358,NaN,1,1,,,
380,1,0,5535.jpg,1.50568078049673,2.02333984672805,3.42333972597862,NaN,1,1,,,
381,1,0,4001.jpg,3.43510428625268,3.95276274873959,4.55275834140593,NaN,1,1,,,
382,1,0,2850.jpg,4.56452290167999,5.08218226978261,5.28217375698932,NaN,1,1,,,
383,1,0,9045.jpg,5.29394495844917,5.81159647787717,7.10571591841199,NaN,1,1,,,
384,1,0,9045.jpg,7.11748108242955,7.63513562057869,8.43513749218528,0.988325699489906,1,1,,,
385,1,0,4520.jpg,8.44690235433154,8.96457289170303,10.7645632921694,NaN,1,1,,,
386,1,0,7180.jpg,10.7763610583761,11.2939854093138,13.4939913863809,NaN,1,1,,,
387,1,0,7180.jpg,13.5057701346441,14.0234132016531,15.5175362042783,0.870665908766568,1,1,,,
388,1,0,4003.jpg,15.5293086132269,16.0469565101894,16.6469530084732,NaN,1,1,,,
389,1,0,8050.jpg,16.6704812234038,17.1881393840185,17.6822539342247,NaN,1,1,,,
390,1,0,4180.jpg,17.6940206076024,18.2116751457515,20.7058035820755,NaN,1,1,,,
391,1,0,7496.jpg,20.7175684442209,21.2352380759758,23.5293508753239,NaN,1,1,,,
392,1,0,7820.jpg,23.5411199636792,24.0587769168051,24.9529112698228,NaN,1,1,,,
393,1,0,7237.jpg,24.9646595290014,25.4823267457796,27.2823162406303,NaN,1,1,,,
394,1,0,2312.jpg,27.2940832158802,27.8117362446692,29.4117414972443,NaN,1,1,,,
395,1,0,4525.jpg,29.4235093781108,29.9411618031554,30.4352775608495,NaN,1,1,,,
396,1,0,7130.jpg,30.4588413966903,30.9764711813259,33.4705929764623,NaN,1,1,,,
397,1,0,4000.jpg,33.4941217951373,34.0117769370308,35.2117780841445,NaN,1,1,,,
398,1,0,4490.jpg,35.2235462668841,35.7411974844399,36.2353150533672,NaN,1,1,35.7883547395886,35.9412819482586,
399,1,0,4530.jpg,36.2470853492105,36.7647453210584,38.5647562488284,NaN,1,1,,,
400,1,0,4525.jpg,38.5765054136236,39.0941505937381,41.2941713625396,NaN,1,1,,,
401,1,0,8116.jpg,41.3059350171961,41.8235919703229,43.6236361040264,NaN,1,1,,,
402,1,0,8116.jpg,43.6353907025205,44.1530419200762,45.3530204267809,1.63536232654042,1,1,,,
403,1,0,4180.jpg,45.3647880057761,45.8824440532853,46.7765790100466,NaN,1,1,,,
404,1,0,7130.jpg,46.788332702924,47.3059805998864,47.7059871203246,NaN,1,1,,,
405,1,0,4003.jpg,47.7177426244343,48.2354080299801,50.2354028981536,NaN,1,1,,,
406,1,0,2312.jpg,50.247168062172,50.7648367883103,51.1648239889328,NaN,1,1,,,
407,1,0,4490.jpg,51.1765867379736,51.6942424836107,52.7883731537886,NaN,1,1,,,
408,1,0,4490.jpg,52.800125337305,53.3177919503387,55.011905534554,0.576560354349567,1,1,,,
409,1,0,7830.jpg,55.0236706985716,55.5413246329772,56.1413229424925,NaN,1,1,,,
410,1,0,7820.jpg,56.1530941439532,56.6707441540202,57.0707422220385,NaN,1,1,,,
411,1,0,4000.jpg,57.0825058766959,57.6001839608707,59.0001642184343,NaN,1,1,,,
412,1,0,4520.jpg,-1.85936683530235,-1.34171078779309,0.152443307661088,1.70599708210375,0,1,60.1061439730784,60.2590856716097,60.8708829548214
413,1,0,7496.jpg,0.164180095699521,0.681834633848666,3.08184387113579,NaN,1,1,,,
414,1,0,4530.jpg,3.09360692204791,3.61126085645355,5.0112785461597,NaN,1,1,,,
415,1,0,7180.jpg,5.02306001127181,5.54068828654636,6.94069058077457,NaN,1,1,,,
416,1,0,7180.jpg,6.95245514104772,7.47012175408236,8.96423056871754,1.76481535539006,1,1,,,
417,1,0,9045.jpg,8.98776482109042,9.50541935924048,11.1054218949657,NaN,1,1,,,
418,1,0,8050.jpg,11.1289501098963,11.6466076667666,12.9407289185338,NaN,1,1,,,
419,1,0,7190.jpg,12.9642586428254,13.4819249539869,14.5760332856271,NaN,1,1,,,
420,1,0,7237.jpg,14.5877999590057,15.1054572140038,15.5054507539408,NaN,1,1,,,
421,1,0,6314.jpg,15.5172186348073,16.0348722673398,18.0348777010386,NaN,1,1,,,
422,1,0,4001.jpg,18.0466464875217,18.5642974032053,20.258421552945,NaN,1,1,,,
423,1,0,2850.jpg,20.2701909431726,20.7878433682163,22.481966008595,NaN,1,1,,,
424,1,0,5535.jpg,22.493733285718,23.0113863145061,23.7055032193148,NaN,1,1,,,
425,1,0,7190.jpg,23.7172671758444,24.2349259402035,26.2349310720292,NaN,1,1,,,
426,1,0,4001.jpg,26.2467170652235,26.7643513779403,28.364357536132,NaN,1,1,,,
427,1,0,4490.jpg,28.3761320581852,28.8937760308099,29.893777540171,NaN,1,1,,,
428,1,0,7820.jpg,29.9055351573852,30.4232011666754,31.4231993554422,NaN,1,1,,,
429,1,0,4525.jpg,31.4349618026108,31.9526190576098,33.1526214122123,NaN,1,1,,,
430,1,0,7830.jpg,33.1643883874622,33.682052283647,35.282060253071,NaN,1,1,,,
431,1,0,7830.jpg,35.293810625355,35.8114672766096,37.8114733140519,1.10600179130961,1,1,35.9409601525776,,
432,1,0,7830.jpg,37.8232393836861,38.3408951293231,39.0350114303874,NaN,0,1,,,
433,1,0,7496.jpg,39.0467756887892,39.5644326419151,41.4585585425129,0.411815757785007,0,1,,,
434,1,0,2850.jpg,41.470321593426,41.9879758297029,42.9879782446797,NaN,1,1,,,
435,1,0,6314.jpg,42.999743106825,43.5174251153376,45.1174065200148,NaN,1,1,,,
436,1,0,4000.jpg,45.1291662503345,45.6468247128214,47.1409443948533,NaN,1,1,,,
437,1,0,7237.jpg,47.1527104644874,47.6703776812656,48.5644839601755,NaN,1,1,,,
438,1,0,7237.jpg,48.5762497279375,49.0939072848078,49.7880281139542,NaN,0,1,,,
439,1,0,4520.jpg,49.7997917686116,50.317442382423,51.5174746223656,0.0588874020004369,0,1,,,
440,1,0,4520.jpg,51.5292077879385,52.0468644391922,52.646863654325,1.08244580414339,1,1,,,
441,1,0,8116.jpg,52.6703954917211,53.1880467092769,53.7880480375143,NaN,1,1,,,
442,1,0,5535.jpg,53.7998104846829,54.3174656265765,56.8115949685161,NaN,1,1,,,
443,1,0,4003.jpg,56.8351307302501,57.3527925133294,58.8469209496534,NaN,1,1,,,
444,1,0,8050.jpg,58.8586676994719,59.37633491625,59.5763188566534,NaN,1,1,,,
445,1,0,4530.jpg,59.5880885487522,60.1057506337047,61.5057580597595,NaN,1,1,,,
446,1,0,7180.jpg,61.5175072245547,62.0351635739362,62.9292804183706,NaN,1,1,,,
447,1,0,2312.jpg,62.9410498085981,63.4587004224095,64.3528184743318,NaN,1,1,,,
448,1,0,2312.jpg,64.3645836383494,64.8822427045807,67.0822517003699,1.09420915692863,1,1,66.9882152142945,,
449,1,0,7130.jpg,-0.65905626926542,-0.141403542348598,1.258597846263,NaN,1,1,,,67.7529264238019
450,1,0,4180.jpg,1.28213662671715,1.79978542929621,3.19978832726883,NaN,1,1,,,
451,1,0,9045.jpg,3.21155741562416,3.7292315754612,6.12921636110605,NaN,1,1,,,
452,1,0,4520.jpg,6.1409806195079,6.6586384782504,9.15279015872693,NaN,1,1,,,
453,1,0,7180.jpg,9.16453147484754,9.68218993733444,10.6821866167411,NaN,1,1,,,
454,1,0,8116.jpg,10.6939505732698,11.2116202050256,12.8116121752264,NaN,1,1,,,
455,1,0,6314.jpg,12.8233758298838,13.341044556023,14.9410371299682,NaN,1,1,,,
456,1,0,7190.jpg,14.9528068220679,15.4704583414959,17.8704699937598,NaN,1,1,,,
457,1,0,7496.jpg,17.8822327428006,18.3999066007655,20.8940157172738,NaN,1,1,,,
458,1,0,2850.jpg,20.9057817869079,21.4234867377008,23.6234459245898,NaN,1,1,,,
459,1,0,9045.jpg,23.6352089755028,24.1528852484453,26.1529024551555,NaN,1,1,,,
460,1,0,4000.jpg,26.1646422619151,26.6823043468676,28.1764146708638,NaN,1,1,,,
461,1,0,4180.jpg,28.1881840610913,28.7058364861359,30.5058416783359,NaN,1,1,,,
462,1,0,7130.jpg,30.5176068423543,31.035267719818,33.235272187525,NaN,1,1,31.3529911451851,,
463,1,0,7820.jpg,33.2470409740081,33.7646918896917,34.9646942442942,NaN,1,1,,,
464,1,0,4530.jpg,34.9764560877193,35.4941148520775,37.6941232441231,NaN,1,1,,,
465,1,0,8050.jpg,37.7059146710153,38.2235529080699,38.4235410746824,NaN,1,1,,,
466,1,0,4490.jpg,38.4353092574211,38.9529858322358,40.5529645200641,NaN,1,1,,,
467,1,0,7830.jpg,40.5647342121629,41.0823965989875,42.8823909237917,NaN,1,1,,,
468,1,0,4003.jpg,42.894160012147,43.4118160596572,45.9059405716425,NaN,1,1,,,
469,1,0,7237.jpg,45.9294724090387,46.44712724906,47.3412437916222,NaN,1,1,,,
470,1,0,2312.jpg,47.3530071444075,47.87067496493,48.3647801570996,NaN,1,1,,,
471,1,0,5535.jpg,48.3883053533091,48.9059758906806,51.0000923728685,NaN,1,1,,,
472,1,0,4525.jpg,51.0118581406305,51.5295120750352,52.6236321796887,NaN,1,1,,,
473,1,0,4525.jpg,52.6353937212407,53.1530796540901,55.6471794125628,1.1059879051918,1,1,55.2707913668191,,
474,1,0,4001.jpg,55.6707109480867,56.188364278747,58.094254739618,NaN,1,1,57.8708192598033,,
475,1,0,2312.jpg,58.1060189980199,58.6236732342968,59.4236714834387,NaN,1,1,,,
476,1,0,9045.jpg,59.4354357418397,59.9530942043266,60.5530919100984,NaN,1,1,59.8590166636423,,
477,1,0,5535.jpg,-0.364905735902539,0.164509740055109,1.44686763903701,NaN,1,1,,,60.9296151945518
478,1,0,7190.jpg,1.45863340679898,1.97628945430824,4.27041613977417,NaN,1,1,,,
479,1,0,4003.jpg,4.2821794925585,4.79983825691761,5.59983620418734,NaN,1,1,,,
480,1,0,4003.jpg,5.61160076446049,6.12925620822625,8.02338210882408,NaN,0,1,,,
481,1,0,8050.jpg,8.03514546160932,8.55282052706207,9.15280223361242,NaN,1,1,,,
482,1,0,4525.jpg,9.16456347329222,9.68222133203471,11.1763428252998,NaN,1,1,,,
483,1,0,7820.jpg,11.1881203660741,11.7057739986067,14.1057738778582,NaN,1,1,,,
484,1,0,4001.jpg,14.1175387400035,14.6351935800249,16.9528508953981,NaN,1,1,,,
485,1,0,7180.jpg,16.9763815253054,17.4940454214902,17.7881476553139,NaN,1,1,,,
486,1,0,7237.jpg,17.7999152343082,18.3175818473428,19.3175697724573,NaN,1,1,,,
487,1,0,4490.jpg,19.3293355402193,19.8469918896017,20.2705326624127,NaN,1,1,,,
488,1,0,2850.jpg,20.2940593679823,20.8117126986426,21.0116975446626,NaN,1,1,,,
489,1,0,7496.jpg,21.023466633018,21.5411395853662,22.1411197825555,NaN,1,1,,,
490,1,0,4000.jpg,22.1528810222353,22.6705400884666,23.270528738075,NaN,1,1,,,
491,1,0,4520.jpg,23.2823053732327,23.7999577982773,24.2940735559723,NaN,1,1,,,
492,1,0,7130.jpg,24.3058649828645,24.823505936768,26.7176173475036,NaN,1,1,,,
493,1,0,6314.jpg,26.7293939826623,27.2470476151948,27.7411552223421,NaN,1,1,,,
494,1,0,6314.jpg,27.7529170657663,28.2705848862888,29.1646932783042,0.917755846433465,1,1,,,
495,1,0,7830.jpg,29.1764557254728,29.6941135842153,31.9882387603193,NaN,1,1,,,
496,1,0,8116.jpg,32.0000072449311,32.5176608774636,32.9176556248885,NaN,1,1,,,
497,1,0,8116.jpg,32.9294198832904,33.4470759307997,35.7412050312423,0.800092433242753,1,1,,,
498,1,0,8116.jpg,35.7529704971321,36.2706392232703,38.6706952507366,1.0471759712209,1,1,,,
499,1,0,4530.jpg,38.6941676193246,39.2118212518571,40.6118259610621,NaN,1,1,40.4943318981323,,
500,1,0,4180.jpg,40.6235932381851,41.141264379301,41.8353607568051,NaN,1,1,,,
501,1,0,2312.jpg,41.8471244114626,42.3647831758217,44.7647915074922,NaN,1,1,,,
502,1,0,2312.jpg,44.7765545584043,45.2942112096589,46.1883368083845,0.776563916440864,1,1,,,
503,1,0,2312.jpg,46.2000865769242,46.7177525862135,47.3177834979188,0.741277178678502,1,1,,,
504,1,0,4000.jpg,47.3295121354104,47.847202596342,48.7412847254818,NaN,1,1,,,
505,1,0,8116.jpg,48.7530489838828,49.2707174081497,50.9648285773883,NaN,1,1,,,
506,1,0,2850.jpg,50.9765937414059,51.5177807206956,52.7177806603213,NaN,1,1,,,
507,1,0,9045.jpg,52.7295455224667,53.2589616021678,54.2707318980119,NaN,1,1,,,
508,1,0,7180.jpg,54.2824979676461,54.8001522039231,55.0942680219914,NaN,1,1,,,
509,1,0,7130.jpg,55.1060307710322,55.6236874222868,56.517803964849,NaN,1,1,,,
510,1,0,7496.jpg,56.5295685251222,57.0472266857369,59.4472347155352,NaN,1,1,57.9767443755936,,
511,1,0,7496.jpg,59.4589971627038,59.9766595495284,60.4001846249885,NaN,0,1,,,
512,1,0,4525.jpg,-0.929678889569004,-0.41203974689779,0.0823344133314095,NaN,1,1,60.8825865369263,,61.3414707994571
513,1,0,4520.jpg,0.0940817668943055,0.611496316707417,1.52938045879182,NaN,1,1,,,
514,1,0,4520.jpg,1.54116282952054,2.05857285125148,2.76445341071758,0.752778808335279,1,1,,,
515,1,0,7830.jpg,2.77622944213181,3.3291833966714,5.18801320147213,NaN,1,1,,,
516,1,0,6314.jpg,5.19975964941841,5.71741026322979,6.5176509156845,NaN,1,1,,,
517,1,0,4003.jpg,6.52945471933344,7.04686987289097,9.04709567323698,NaN,1,1,,,
518,1,0,8050.jpg,9.05885600730107,9.57650148928678,11.7294751862628,NaN,1,1,,,
519,1,0,8050.jpg,11.7412273697792,12.2586271278587,14.0588650634645,0.753053511965845,1,1,,,
520,1,0,4180.jpg,14.0707035824071,14.5883001611091,16.4824526264538,NaN,1,1,,,
521,1,0,7190.jpg,16.4941987725279,17.0233567515661,19.4354115920705,NaN,1,1,,,
522,1,0,5535.jpg,19.4589331658144,20.0353969210855,21.8706861341989,NaN,1,1,,,
523,1,0,4490.jpg,21.8825146913614,22.4001236468212,24.5060285371792,NaN,1,1,,,
524,1,0,4530.jpg,24.5177764944865,25.0354210708556,26.7295425037455,NaN,1,1,,,
525,1,0,7820.jpg,26.7413091771241,27.2589582815754,29.7648859934661,NaN,1,1,,,
526,1,0,4001.jpg,29.7883918698599,30.3060569735326,31.6942793120097,NaN,1,1,,,
527,1,0,7237.jpg,31.7060435704107,32.2234596295848,33.7531316968443,NaN,1,1,,,
528,1,0,4003.jpg,33.7648760316861,34.2823074863381,35.1766501311185,NaN,1,1,,,
529,1,0,5535.jpg,35.1884174082406,35.7060698332853,35.9648995173366,NaN,1,1,,,
530,1,0,9045.jpg,35.976688529252,36.494316200783,37.2943325622518,NaN,1,1,,,
531,1,0,4490.jpg,37.3060799158138,37.8237386801729,39.4472736570388,NaN,1,1,,,
532,1,0,4490.jpg,39.459049688453,40.0355433290642,40.576700724886,1.07069301688261,1,1,,,
533,1,0,6314.jpg,40.5884701151135,41.1058774199955,42.0355502721231,NaN,1,1,,,
534,1,0,4000.jpg,42.0473015500229,42.5649594087654,44.5296539549327,NaN,1,1,,,
535,1,0,8116.jpg,44.5414173077179,45.0588795533258,46.2590787285508,NaN,1,1,,,
536,1,0,4180.jpg,46.2708535524771,46.7885029587997,49.2826507149393,NaN,1,1,48.2592450600896,,
537,1,0,7130.jpg,49.2943872011056,49.812061964687,50.9649940033105,NaN,1,1,,,
538,1,0,7237.jpg,50.9767706384691,51.4944236672573,53.5885326026419,NaN,1,1,,,
539,1,0,4530.jpg,53.6003182939639,54.1177156370668,55.9179722887429,NaN,1,1,,,
540,1,0,7190.jpg,55.9297314153182,56.4471535119355,58.3530334072821,NaN,1,1,,,
541,1,0,4520.jpg,58.3647949488341,58.8824739386255,59.4826953316388,NaN,1,1,,,
542,1,0,7496.jpg,59.4944746836454,60.0118723286205,61.3177545181961,NaN,1,1,60.7531470923232,,
543,1,0,7830.jpg,-0.188449708557528,0.329206338952645,0.529210806659648,NaN,1,1,,,61.5178142285013
544,1,0,4525.jpg,0.540963593920424,1.0586202451741,2.85863056920061,NaN,1,1,,,
545,1,0,7820.jpg,2.87039120513691,3.3880487620072,5.48217369661415,NaN,1,1,,,
546,1,0,8050.jpg,5.49397659464739,6.01159400252527,6.41160052296345,NaN,1,1,,,
547,1,0,2850.jpg,6.42335451771214,6.94101026335011,9.34101889689282,NaN,1,1,,,
548,1,0,2850.jpg,9.35278587214361,9.87045278704954,10.2704381764388,0.6000912861291,1,1,,,
549,1,0,2850.jpg,10.2822021329685,10.7998705572345,12.3057753268449,0.788371342554456,1,1,,,
550,1,0,2312.jpg,12.3175362646525,12.8354006039253,13.7295557861189,NaN,1,1,,,
551,1,0,4001.jpg,13.7413131014609,14.2587146707738,16.1765951903926,NaN,1,1,,,
552,1,0,7180.jpg,16.188378466737,16.7058023745867,18.0001533510367,NaN,1,1,,,
553,1,0,7180.jpg,18.0118979877507,18.5293291405305,21.0237014895274,NaN,0,1,,,
