Trial,nBack,Valence,Image,imagePresentationTime,NoisePresentationTime,x,RT,Accuracy,experiment,Clock_1,Clock_2,dataOneMinPress_1,dataOneMinPress_2
1,1,2,7234.jpg,0.0181696938923324,0.594666701281312,1.42993649512368,NaN,1,0,,,,
2,1,2,7234.jpg,1.44168355390639,1.95910143482934,4.06499280487355,0.552788560488807,1,0,,,,
3,1,2,2490.jpg,4.07676008910062,4.59443456148074,7.08854337255957,NaN,1,0,,,,
4,1,2,7920.jpg,7.1003136755096,7.61797033742369,10.1120921290117,NaN,1,0,,,,
5,1,2,9000.jpg,10.123856696388,10.6415112451962,11.135626999338,NaN,1,0,,,,
6,1,2,4571.jpg,11.1473909629697,11.6650572847975,12.3591652506341,NaN,1,0,,,,
7,1,2,4571.jpg,12.3709313273716,12.8885852724352,13.0885823140866,0.482404920035606,1,0,,,,
8,1,2,4571.jpg,13.1003465795907,13.618000524654,15.218005233862,0.823616315473373,1,0,,,,
9,1,2,9101.jpg,15.2297710087273,15.7474481979582,16.1474256782844,NaN,1,0,,,,
10,1,2,7700.jpg,16.1591905475329,16.6768453982133,17.7709661634356,NaN,1,0,,,,
11,1,2,2221.jpg,17.782730127067,18.3003907133211,20.5945139538962,NaN,1,0,,,,
12,1,2,9331.jpg,20.6062782194001,21.1239336738252,22.6180545597963,NaN,1,0,,,,
13,1,2,9700.jpg,22.6298206365339,23.1474766947035,24.1474776003204,NaN,1,0,,,,
14,1,2,9561.jpg,24.1592427714413,24.6768973202493,25.3710152478718,NaN,1,0,,,,
15,1,2,5120.jpg,25.3827798152481,25.900433156567,27.1004528386411,NaN,1,0,,,,
16,1,2,4635.jpg,27.1122035198914,27.6298589743164,30.029869660596,NaN,1,0,,,,
17,1,2,9360.jpg,30.0416354354613,30.5592993423109,30.9592867844231,NaN,1,0,,,,
18,1,2,8465.jpg,30.9710782184343,31.4887143530318,32.7828282355654,NaN,1,0,,,,
19,1,2,8465.jpg,32.794594010431,33.312250672345,35.5122745806314,NaN,0,0,,,,
20,1,2,4320.jpg,35.5240228469033,36.0416798106899,36.3357936932234,NaN,1,0,,,,
21,1,2,9042.jpg,36.3475627886842,36.8652143187692,38.6652205977132,NaN,1,0,,,,
22,1,2,9390.jpg,38.6769851650895,39.1946457513436,41.6887705616546,NaN,1,0,,,,
23,1,2,4561.jpg,41.7005357327753,42.2182005452416,43.0181884099752,NaN,1,0,,,,
24,1,2,9001.jpg,43.0299538829684,43.5476205066684,44.0417262990245,NaN,1,0,,,,
25,1,2,2720.jpg,44.0534923757623,44.5711580938455,46.371151996025,NaN,1,0,,,,
26,1,2,1945.jpg,46.382918374635,46.9005732253154,49.1947028052086,NaN,1,0,,,,
27,1,2,4561.jpg,49.2064655613513,49.7241219213931,51.3241281399626,0.811849936863382,0,0,,,,
28,1,2,7234.jpg,51.3358914998496,51.8535466524022,54.1476750248064,NaN,1,0,,,,
29,1,2,7234.jpg,54.1594395921825,54.6770950466075,55.2770946239864,NaN,0,0,,,,
30,1,2,8465.jpg,55.2888610025964,55.8065155514046,57.8182867599714,0.0824395146014467,0,0,,,,
31,1,2,8465.jpg,57.8300540441983,58.3477203660261,59.3477330446628,0.458874577793949,1,0,,,,
32,1,2,7920.jpg,59.3594961026777,59.8771304260415,61.0771793897288,NaN,1,0,,,,
33,1,2,1945.jpg,61.0889409383822,61.606558356897,62.1006707904435,NaN,1,0,,,,
34,1,2,9000.jpg,62.112435659692,62.6300896047555,64.7242161055515,NaN,1,0,,,,
35,1,2,9001.jpg,64.7359812766722,65.2536475985003,66.8536417421774,NaN,1,0,,,,
36,1,2,9331.jpg,66.8654072151705,67.3830735369986,69.2771872987832,NaN,1,0,,,,
37,1,2,9360.jpg,69.2889512624149,69.8066203010935,71.900732613891,NaN,1,0,,,,
38,1,2,5120.jpg,71.9125035205857,72.4301544469261,72.7242686313321,NaN,1,0,,,,
39,1,2,4635.jpg,72.736033802453,73.2536901624949,75.653700546902,NaN,1,0,,,,
40,1,2,2221.jpg,75.6654684348737,76.183129323,77.4772426017892,NaN,1,0,,,,
41,1,2,9390.jpg,77.4890056598038,78.0066641329518,80.0066719816316,NaN,1,0,,,,
42,1,2,9390.jpg,80.0184326246679,80.5361007577296,82.4302199532158,NaN,0,0,,,,
43,1,2,9042.jpg,82.4419811999967,82.9596574836105,85.0537652683238,NaN,1,0,,,,
44,1,2,9101.jpg,85.0655449293151,85.5831840826356,86.0772998367777,NaN,1,0,,,,
45,1,2,9561.jpg,86.0890668191323,86.6067289147479,87.8067238432932,NaN,1,0,,,,
46,1,2,4571.jpg,87.8184941462432,88.3361420538606,89.9361494799193,NaN,1,0,,,,
47,1,2,2490.jpg,89.9479188772523,90.4655891234202,92.8655804898724,NaN,1,0,,,,
48,1,2,4320.jpg,92.8773510946946,93.3949993041842,95.595009628217,NaN,1,0,,,,
49,1,2,7700.jpg,95.6067796292948,96.1244305556352,98.4185574186779,NaN,1,0,,,,
50,1,2,2720.jpg,98.4303265141386,98.947977440479,100.442104363896,NaN,1,0,,,,
51,1,2,9700.jpg,100.453869535017,100.97156664782,102.465643158562,NaN,1,0,,,,
52,1,2,7234.jpg,102.477410140917,102.995064991597,105.195074410013,NaN,1,0,,,,
53,1,2,7234.jpg,105.206839581134,105.724507714196,105.924491473466,0.529499414216843,1,0,,,,
54,1,2,4320.jpg,105.936254531481,106.453915117735,108.748040773288,NaN,1,0,,,,
55,1,2,4320.jpg,108.759802925686,109.277499132872,110.371580352822,0.494170996773164,1,0,,,,
56,1,2,4561.jpg,110.383349750155,110.901009732665,111.101026094144,NaN,1,0,,,,
57,1,2,7920.jpg,111.112770436076,111.630421060544,113.524541765391,NaN,1,0,,,,
58,1,2,2720.jpg,113.536305729023,114.05396269281,114.548076635718,NaN,1,0,,,,
59,1,2,8465.jpg,114.559847844285,115.077498770625,115.571615128512,NaN,1,0,,,,
60,1,2,4571.jpg,115.583378790271,116.101034546568,117.701039859521,NaN,1,0,,,,
61,1,2,5120.jpg,117.712805332514,118.230461390683,119.030464650904,NaN,1,0,,,,
62,1,2,4635.jpg,119.042225595813,119.559891313896,120.45399843449,NaN,1,0,,,,
63,1,2,9561.jpg,120.465762699994,120.983419060036,122.077539825258,NaN,1,0,,,,
64,1,2,2221.jpg,122.089325825568,122.606962262038,123.701080310409,NaN,1,0,,,,
65,1,2,9700.jpg,123.712843670296,124.230502143444,125.324621097433,NaN,1,0,,,,
66,1,2,9390.jpg,125.336385061064,125.854040817361,127.454044620953,NaN,1,0,,,,
67,1,2,7700.jpg,127.465813716413,127.983479736369,128.583479917492,NaN,1,0,,,,
68,1,2,9360.jpg,128.595248711081,129.112889675635,129.712885026802,NaN,1,0,,,,
69,1,2,9101.jpg,129.72464989605,130.242306256092,130.642302754374,NaN,1,0,,,,
70,1,2,9000.jpg,130.654076377919,131.171736662301,132.065844084767,NaN,1,0,,,,
71,1,2,1945.jpg,132.077610161505,132.595292180692,134.595270445886,NaN,1,0,,,,
72,1,2,1945.jpg,134.607036824497,135.124693184539,135.818807489693,0.647146899212885,1,0,,,,
73,1,2,2490.jpg,135.830573868303,136.348228718984,138.242354857533,NaN,1,0,,,,
74,1,2,9001.jpg,138.254123651121,138.771774879334,140.571791120064,NaN,1,0,,,,
75,1,2,9042.jpg,140.583576516629,141.101213254971,143.19532828462,NaN,1,0,,,,
76,1,2,9331.jpg,143.20709858757,143.724749815782,145.818874807217,NaN,1,0,,,,
77,1,2,2720.jpg,145.830642091444,146.348297243997,147.242415533866,NaN,1,0,,,,
78,1,2,2221.jpg,147.254179497497,147.771836159412,148.665953543664,NaN,1,0,,,,
79,1,2,7920.jpg,148.677720827891,149.195383829123,150.59540598655,NaN,1,0,,,,
80,1,2,9390.jpg,150.607167837076,151.124811216609,152.018943090732,NaN,1,0,,,,
81,1,2,8465.jpg,152.030732411637,152.548338359004,154.654232445899,NaN,1,0,,,,
82,1,2,4571.jpg,154.665993994552,155.183667863188,157.277776553518,NaN,1,0,,,,
83,1,2,9700.jpg,157.289542932128,157.807205631488,159.301319876269,NaN,1,0,,,,
84,1,2,4320.jpg,159.313083236156,159.830740501814,160.630790854114,NaN,1,0,,,,
85,1,2,9561.jpg,160.642548176555,161.16016287822,162.960170364653,NaN,1,0,,,,
86,1,2,1945.jpg,162.971989570916,163.489587669603,164.195471372091,NaN,1,0,,,,
87,1,2,9042.jpg,164.20723624134,164.724903166912,165.924898095457,NaN,1,0,,,,
88,1,2,9360.jpg,165.93669888751,166.45431177794,167.548475107157,NaN,1,0,,,,
89,1,2,9001.jpg,167.560242391384,168.077855583687,169.477859930648,NaN,1,0,,,,
90,1,2,9001.jpg,169.489622083046,170.0072826693,172.501411705823,0.788329858280122,1,0,,,,
91,1,2,9101.jpg,172.513193781793,173.030829312646,175.030847123112,0.670656412265771,0,0,,,,
92,1,2,4635.jpg,175.042623463508,175.560285257251,178.054399803904,NaN,1,0,,,,
93,1,2,5120.jpg,178.066167691875,178.583811071408,179.277940470178,NaN,1,0,,,,
94,1,2,9331.jpg,179.289693264535,179.80734751147,181.207400158,NaN,1,0,,,,
95,1,2,4561.jpg,181.219129104444,181.73679120006,182.030901460126,NaN,1,0,,,,
96,1,2,7234.jpg,182.042676593033,182.560307897674,184.560339594266,NaN,1,0,,,,
97,1,2,2490.jpg,184.572079408113,185.08974693743,186.689742892341,NaN,1,0,,,,
98,1,2,9000.jpg,186.701511082185,187.219176196524,189.419197689832,NaN,1,0,,,,
99,1,2,9000.jpg,189.430936899935,189.948593259976,192.442721390883,0.729543246075082,1,0,,,,
100,1,2,9000.jpg,192.454485656387,192.972164958723,195.372153910197,0.611855612062755,1,0,,,,
101,1,2,7700.jpg,195.38392330753,195.901573328254,196.995694395348,NaN,1,0,,,,
102,1,2,4635.jpg,197.007458660852,197.525120152723,197.725111760673,NaN,1,0,,,,
103,1,2,4635.jpg,197.736874516816,198.254553215408,199.654580806536,0.835386618423627,1,0,,,,
104,1,2,4320.jpg,199.666341751445,200.183955849365,200.783955426743,NaN,1,0,,,,
105,1,2,9000.jpg,200.795719692247,201.313402315179,202.007493376167,NaN,1,0,,,,
106,1,2,9042.jpg,202.019257037926,202.536913096096,203.431031687838,NaN,1,0,,,,
107,1,2,7700.jpg,203.442796557086,203.960456539596,204.360455754728,NaN,1,0,,,,
108,1,2,9360.jpg,204.372215190275,204.889922868608,206.783995575759,NaN,1,0,,,,
109,1,2,9001.jpg,206.795760143136,207.313440652962,209.207541132365,NaN,1,0,,,,
110,1,2,4561.jpg,209.219306303486,209.736962663528,211.231085662605,NaN,1,0,,,,
111,1,2,4571.jpg,211.242853852449,211.760523796745,212.760507193768,NaN,1,0,,,,
112,1,2,5120.jpg,212.772271157399,213.289945026035,215.384055527599,NaN,1,0,,,,
113,1,2,2221.jpg,215.395822811826,215.913486416803,217.40759885035,NaN,1,0,,,,
114,1,2,9390.jpg,217.419365530832,217.937018268406,220.337029256558,NaN,1,0,,,,
115,1,2,7234.jpg,220.348793823934,220.86645199521,223.160578254508,NaN,1,0,,,,
116,1,2,7234.jpg,223.17234221814,223.690020011115,224.69000099316,0.635385350559773,1,0,,,,
117,1,2,2490.jpg,224.701765258664,225.219420109344,226.713543712166,NaN,1,0,,,,
118,1,2,2720.jpg,226.72531582635,227.242982148178,228.242966450818,NaN,1,0,,,,
119,1,2,8465.jpg,228.254732829428,228.772378322067,230.372404766081,NaN,1,0,,,,
120,1,2,9331.jpg,230.384162994138,230.901817241074,232.995945854976,NaN,1,0,,,,
121,1,2,9101.jpg,233.007708309246,233.525359839331,235.419485072264,NaN,1,0,,,,
122,1,2,9700.jpg,235.431252054618,235.948906603426,236.443020546335,NaN,1,0,,,,
123,1,2,9700.jpg,236.454783000605,236.972477094684,239.066567672676,0.811869558563103,1,0,,,,
124,1,2,7920.jpg,239.078338579371,239.596005504943,239.795985339874,NaN,1,0,,,,
125,1,2,9561.jpg,239.807754435334,240.325406267292,241.41952522128,NaN,1,0,,,,
126,1,2,1945.jpg,241.431293411124,241.948946752443,243.843084362139,NaN,1,0,,,,
127,1,2,1945.jpg,243.854836854624,244.372512534493,246.372500157728,0.600094667154053,1,0,,,,
128,1,2,5120.jpg,246.384265630721,246.90192289638,247.901946140548,NaN,1,0,,,,
129,1,2,9700.jpg,247.913686860012,248.431353483712,250.325469660475,0.51774450675407,0,0,,,,
130,1,2,4561.jpg,250.337232416618,250.854890587893,253.149016847191,NaN,1,0,,,,
131,1,2,9360.jpg,253.160780810823,253.678443208311,254.372556004104,NaN,1,0,,,,
132,1,2,9390.jpg,254.384319665864,254.90197662965,255.39609087443,NaN,1,0,,,,
133,1,2,7700.jpg,255.407855743679,255.925513613082,256.619629125727,NaN,1,0,,,,
134,1,2,2221.jpg,256.63139067438,257.14906122242,258.149051562506,NaN,1,0,,,,
135,1,2,2221.jpg,258.160815224265,258.678471584307,259.478485410059,0.670676033965492,1,0,,,,
136,1,2,9042.jpg,259.490251788669,260.00789365884,262.407945399753,NaN,1,0,,,,
137,1,2,9561.jpg,262.419703024066,262.937324366921,263.231451229964,NaN,1,0,,,,
138,1,2,9000.jpg,263.243216702957,263.76087064802,265.360870829144,NaN,1,0,,,,
139,1,2,4571.jpg,265.372650792007,265.890301718348,266.38440177513,NaN,1,0,,,,
140,1,2,2490.jpg,266.396165436889,266.913821495059,269.113836649048,NaN,1,0,,,,
141,1,2,4320.jpg,269.125601518297,269.643278405655,270.243251720144,NaN,1,0,,,,
142,1,2,8465.jpg,270.255015080031,270.772713400323,272.172677296395,NaN,1,0,,,,
143,1,2,9001.jpg,272.184448806835,272.70209641258,275.196226656592,NaN,1,0,,,,
144,1,2,2720.jpg,275.207991827713,275.725646980266,276.725669016944,NaN,1,0,,,,
145,1,2,9331.jpg,276.737413358876,277.255127980272,277.549205940002,NaN,1,0,,,,
146,1,2,7920.jpg,277.560947263211,278.078622641208,278.77272094713,NaN,1,0,,,,
147,1,2,9101.jpg,278.784485816379,279.302147610122,280.396261130409,NaN,1,0,,,,
148,1,2,1945.jpg,280.408026603402,280.925683265316,281.925682963444,NaN,1,0,,,,
149,1,2,4635.jpg,281.93745266265,282.45511143767,283.14922121474,NaN,1,0,,,,
150,1,2,7234.jpg,283.160991215818,283.678645160881,286.078694486815,NaN,1,0,,,,
151,1,2,7920.jpg,286.090430678195,286.608078585813,288.408080336672,NaN,1,0,,,,
152,1,2,4561.jpg,288.419844904048,288.937500962218,291.431628187507,NaN,1,0,,,,
153,1,2,9360.jpg,291.443395773607,291.961052737393,293.161100191719,NaN,1,0,,,,
154,1,2,4635.jpg,293.172850872969,293.69047553642,296.090521541758,NaN,1,0,,,,
155,1,2,7234.jpg,296.102284599773,296.619907150117,296.819902078662,NaN,1,0,,,,
156,1,2,9331.jpg,296.83166423106,297.349323307953,298.949330130267,NaN,1,0,,,,
157,1,2,1945.jpg,298.961094999516,299.478798451637,301.572884501544,NaN,1,0,,,,
158,1,2,9101.jpg,301.584654502622,302.102298787771,302.796416111649,NaN,1,0,,,,
159,1,2,9390.jpg,302.808179169664,303.32584398213,305.725845914113,NaN,1,0,,,,
160,1,2,5120.jpg,305.737611990851,306.255263520936,308.255274388339,NaN,1,0,,,,
161,1,2,2720.jpg,308.267038955715,308.784693504523,310.878840532636,NaN,1,0,,,,
162,1,2,7700.jpg,310.890589402652,311.408260252565,312.902406495809,NaN,1,0,,,,
163,1,2,9561.jpg,312.914168044462,313.431782746126,315.52591286939,NaN,1,0,,,,
164,1,2,2490.jpg,315.537690719147,316.055330476213,316.949494952544,NaN,1,0,,,,
165,1,2,9700.jpg,316.961236577625,317.478879051541,318.17298731925,NaN,1,0,,,,
166,1,2,8465.jpg,318.184753094116,318.702409454158,319.596542837642,NaN,1,0,,,,
167,1,2,2221.jpg,319.608317064932,320.125948369573,321.725953682525,NaN,1,0,,,,
168,1,2,9000.jpg,321.737724891092,322.255376119305,324.349500205122,NaN,1,0,,,,
169,1,2,4320.jpg,324.361269904328,324.87892113254,325.678923185272,NaN,1,0,,,,
170,1,2,4320.jpg,325.690687752648,326.208345018307,327.302462462934,0.588326477310147,1,0,,,,
171,1,2,4571.jpg,327.314231558395,327.83187916414,330.031891299406,NaN,1,0,,,,
172,1,2,9001.jpg,330.043664017335,330.56132218861,332.161351651347,NaN,1,0,,,,
173,1,2,9042.jpg,332.173089050216,332.690743900896,335.184869616824,NaN,1,0,,,,
174,1,2,1945.jpg,335.196634486073,335.714294770455,336.314297064684,NaN,1,0,,,,
175,1,2,9390.jpg,336.326060122699,336.843715577124,338.937878906341,NaN,1,0,,,,
176,1,2,2720.jpg,338.949643473717,339.467267835295,341.267262944963,NaN,1,0,,,,
177,1,2,9042.jpg,341.279029021701,341.796698965997,342.490800894387,NaN,1,0,,,,
178,1,2,9700.jpg,342.502565763636,343.020236915421,344.314357741017,NaN,1,0,,,,
179,1,2,9001.jpg,344.326109327884,344.843775649712,345.937881623192,NaN,1,0,,,,
180,1,2,9360.jpg,345.949655548609,346.467328209755,348.067312693519,NaN,1,0,,,,
181,1,2,4571.jpg,348.079075449661,348.596735432171,350.69085710301,NaN,1,0,,,,
182,1,2,4571.jpg,350.702622274131,351.220281652896,351.620275434326,0.811854464948055,1,0,,,,
183,1,2,9561.jpg,351.632037586724,352.149697267361,354.243823466285,0.0353664533536175,0,0,,,,
184,1,2,7234.jpg,354.255591354256,354.773251638638,356.973295772369,NaN,1,0,,,,
185,1,2,2490.jpg,356.985017473878,357.502673532048,358.502675947026,NaN,1,0,,,,
186,1,2,7920.jpg,358.514443834998,359.032102610018,360.232096934819,NaN,1,0,,,,
187,1,2,8465.jpg,360.243878407044,360.761545634489,362.255653841823,NaN,1,0,,,,
188,1,2,9101.jpg,362.267413881115,362.785062090604,364.585067765804,NaN,1,0,,,,
189,1,2,4561.jpg,364.608596598684,365.126278315999,367.02037970102,NaN,1,0,,,,
190,1,2,4561.jpg,367.032140947801,367.549803043416,369.549821457627,0.541268509677593,1,0,,,,
191,1,2,5120.jpg,369.561586628747,370.079228800791,371.173348358524,NaN,1,0,,,,
192,1,2,2221.jpg,371.185112322156,371.702772304665,372.902817344013,NaN,1,0,,,,
193,1,2,9000.jpg,372.914536328671,373.432197820542,375.832201261887,NaN,1,0,,,,
194,1,2,9000.jpg,375.843968546114,376.361624302411,377.855746697743,NaN,0,0,,,,
195,1,2,7700.jpg,377.867516095077,378.385179398181,380.585178251067,NaN,1,0,,,,
196,1,2,9331.jpg,380.596944025932,381.114625743247,381.914596703132,NaN,1,0,,,,
197,1,2,4320.jpg,381.926366402337,382.444029705442,384.044023245375,NaN,1,0,,,,
198,1,2,4635.jpg,384.05579294458,384.573455342068,386.173450995107,NaN,1,0,,,,
199,1,2,9700.jpg,386.185214656866,386.702870413164,389.196999751559,NaN,1,0,,,,
200,1,2,9390.jpg,389.220526773205,389.738198528735,390.138182650252,NaN,1,0,,,,
201,1,2,9331.jpg,390.149945708266,390.66760357767,392.067607019014,NaN,1,0,,,,
202,1,2,4635.jpg,392.07937158639,392.597028550177,393.997033500882,NaN,1,0,,,,
203,1,2,8465.jpg,394.00879686077,394.526479181829,394.926450020965,NaN,1,0,,,,
204,1,2,4561.jpg,394.938213984597,395.455869439022,397.749996905809,NaN,1,0,,,,
205,1,2,9561.jpg,397.761762680674,398.279420550078,400.573546809376,NaN,1,0,,,,
206,1,2,9561.jpg,400.58531107488,401.102968038666,402.30302696414,0.788337103215326,1,0,,,,
207,1,2,9561.jpg,402.314790625899,402.832448495302,404.83241015752,0.588268517828283,1,0,,,,
208,1,2,9042.jpg,404.844181667959,405.361821425024,405.855934764188,NaN,1,0,,,,
209,1,2,7234.jpg,405.867699633436,406.385368068371,407.985362815792,NaN,1,0,,,,
210,1,2,4571.jpg,407.997131005636,408.514792195635,409.314782173474,NaN,1,0,,,,
211,1,2,7700.jpg,409.326551268935,409.844211553317,411.044205274373,NaN,1,0,,,,
212,1,2,4320.jpg,411.055968936133,411.573644012257,413.773635016463,NaN,1,0,,,,
213,1,2,2720.jpg,413.785403810051,414.303081603026,414.903057936238,NaN,1,0,,,,
214,1,2,9360.jpg,414.914821597997,415.432474939316,416.326594738547,NaN,1,0,,,,
215,1,2,1945.jpg,416.338362324646,416.856038004515,418.150135887817,NaN,1,0,,,,
216,1,2,1945.jpg,418.161952075357,418.679557720852,419.67959545489,0.494123300949468,1,0,,,,
217,1,2,2490.jpg,419.70310859041,420.220743215646,422.314897790566,NaN,1,0,,,,
218,1,2,7920.jpg,422.326646962455,422.844288832626,425.33841786915,NaN,1,0,,,,
219,1,2,5120.jpg,425.350188473972,425.867851475205,426.361954248837,NaN,1,0,,,,
220,1,2,9000.jpg,426.373719419958,426.89138755302,427.585504273153,NaN,1,0,,,,
221,1,2,9001.jpg,427.597261293722,428.114924596827,429.914920008368,NaN,1,0,,,,
222,1,2,9001.jpg,429.926683670127,430.444340935786,431.538460191647,0.658917202162911,1,0,,,,
223,1,2,9101.jpg,431.561988420782,432.079645082696,434.573774722964,NaN,1,0,,,,
224,1,2,2221.jpg,434.585557402679,435.103194744765,437.597324385033,NaN,1,0,,,,
225,1,2,2221.jpg,437.609090159899,438.126744708707,439.820868371903,0.776561064691577,1,0,,,,
226,1,2,9700.jpg,439.832637165491,440.350295638639,442.550298717737,NaN,1,0,,,,
227,1,2,9101.jpg,442.562062681369,443.079727795707,444.173839202888,NaN,1,0,,,,
228,1,2,9000.jpg,444.185603770264,444.703260734051,446.397385000992,NaN,1,0,,,,
229,1,2,4320.jpg,446.409146549645,446.926837625002,449.420932549955,NaN,1,0,,,,
230,1,2,2221.jpg,449.432697117331,449.950353779245,451.444479797045,NaN,1,0,,,,
231,1,2,9042.jpg,451.456239232592,451.973920044291,454.373906278914,NaN,1,0,,,,
232,1,2,2720.jpg,454.385672053779,454.903327508204,456.797452741136,NaN,1,0,,,,
233,1,2,1945.jpg,456.809217308513,457.326873366682,458.621005361554,NaN,1,0,,,,
234,1,2,5120.jpg,458.6327593634,459.150416025314,460.844536066042,NaN,1,0,,,,
235,1,2,8465.jpg,460.85630606712,461.373957899077,463.668076611568,NaN,1,0,,,,
236,1,2,8465.jpg,463.679854461325,464.1975071989,464.797504965045,0.705967019243417,1,0,,,,
237,1,2,2490.jpg,464.809270136165,465.326926496207,466.421072316831,NaN,1,0,,,,
238,1,2,7700.jpg,466.444576396182,466.962231548735,469.456358774024,NaN,1,0,,,,
239,1,2,7700.jpg,469.468125152634,469.985793285696,471.079902277898,NaN,0,0,,,,
240,1,2,9360.jpg,471.091682542634,471.609324110933,473.303443246045,NaN,1,0,,,,
241,1,2,9001.jpg,473.31520902091,473.832875644611,476.126992545867,NaN,1,0,,,,
242,1,2,9001.jpg,476.138757716988,476.656424038816,479.150543717298,0.482406731269293,1,0,,,,
243,1,2,9001.jpg,479.162307982802,479.679963135354,481.374086194806,0.670678750816251,1,0,,,,
244,1,2,7234.jpg,481.397614122069,481.915272595217,482.315270904732,NaN,1,0,,,,
245,1,2,7920.jpg,482.327040000193,482.844687605938,483.044683138228,NaN,1,0,,,,
246,1,2,4561.jpg,483.056455856157,483.574107688114,485.17411209545,NaN,1,0,,,,
247,1,2,9561.jpg,485.185880285293,485.703532419123,487.197656021945,NaN,1,0,,,,
248,1,2,4571.jpg,487.209423306172,487.727084496171,490.221228324437,NaN,1,0,,,,
249,1,2,4635.jpg,490.232980816921,490.750626007688,492.644748825641,NaN,1,0,,,,
250,1,2,9331.jpg,492.65652033608,493.174174884889,494.868288284426,NaN,1,0,,,,
251,1,2,9390.jpg,494.891836135262,495.409479514795,496.809484163628,NaN,1,0,,,,
252,1,2,9561.jpg,496.821250240366,497.338905392918,498.138904426927,NaN,1,0,,,,
253,1,2,9561.jpg,498.150669296176,498.668338938599,501.162454088996,0.494167374305562,1,0,,,,
254,1,2,4320.jpg,501.185985336855,501.703654677406,503.103643628879,NaN,1,0,,,,
255,1,2,4571.jpg,503.115407290639,503.633063952553,503.833059182971,NaN,1,0,,,,
256,1,2,7920.jpg,503.844823448474,504.362491279664,506.162487596822,NaN,1,0,,,,
257,1,2,7920.jpg,506.17425246607,506.691907920495,508.091912871201,0.576559796827723,1,0,,,,
258,1,2,9101.jpg,508.103690720959,508.621331081768,508.915492358254,NaN,1,0,,,,
259,1,2,9101.jpg,508.927212248529,509.444867099209,511.739023243865,0.729500078335832,1,0,,,,
260,1,2,4635.jpg,511.750759133373,512.268416399032,513.162533481412,NaN,1,0,,,,
261,1,2,4635.jpg,513.174298652533,513.691985199805,514.386071128963,0.611863460742597,1,0,,,,
262,1,2,7700.jpg,514.397836601956,514.91551288557,515.315490667769,NaN,1,0,,,,
263,1,2,9360.jpg,515.327255537017,515.844919443867,516.73902777195,NaN,1,0,,,,
264,1,2,9700.jpg,516.762561132915,517.280226247253,517.974353532917,NaN,1,0,,,,
265,1,2,9700.jpg,517.986097874849,518.503753027402,520.197874879364,0.541284207037506,1,0,,,,
266,1,2,2720.jpg,520.209643974825,520.727296108655,521.021409689316,NaN,1,0,,,,
267,1,2,9042.jpg,521.033179690394,521.550832427968,522.350830858232,NaN,1,0,,,,
268,1,2,8465.jpg,522.362609311734,522.880251181906,523.680251423403,NaN,1,0,,,,
269,1,2,2490.jpg,523.703782067517,524.221447483728,526.51556378124,NaN,1,0,,,,
270,1,2,1945.jpg,526.52733408419,527.044983501169,528.244985070905,NaN,1,0,,,,
271,1,2,2221.jpg,528.256757788834,528.774409922663,530.774417469471,NaN,1,0,,,,
272,1,2,4561.jpg,530.78618113123,531.303839000634,532.903844313586,NaN,1,0,,,,
273,1,2,9331.jpg,532.915606767856,533.433280636492,535.433269769089,NaN,1,0,,,,
274,1,2,9331.jpg,535.445031619614,535.962691602124,536.362689006022,0.517738771180348,1,0,,,,
275,1,2,7234.jpg,536.374452969654,536.89212170646,539.386237460602,NaN,1,0,,,,
276,1,2,5120.jpg,539.398006857935,539.915658689892,542.115668108308,NaN,1,0,,,,
277,1,2,9390.jpg,542.127431770067,542.645084809514,542.939202616388,NaN,1,0,,,,
278,1,2,9001.jpg,542.950972315593,543.468622940061,544.762744973147,NaN,1,0,,,,
279,1,2,9000.jpg,544.786275013516,545.303933184792,546.198047550321,NaN,1,0,,,,
280,1,2,9561.jpg,546.209813023314,546.727481458249,548.421595159659,NaN,1,0,,,,
281,1,2,4635.jpg,548.433357010184,548.951026652607,549.645126769764,NaN,1,0,,,,
282,1,2,8465.jpg,549.656894053991,550.174550715905,551.668671903749,NaN,1,0,,,,
283,1,2,9331.jpg,551.680435263636,552.198103094825,553.798099049736,NaN,1,0,,,,
284,1,2,2221.jpg,553.809861202134,554.327549862512,555.927559703549,NaN,1,0,,,,
285,1,2,2720.jpg,555.939323365309,556.45694682127,557.656950202239,NaN,1,0,,,,
286,1,2,9390.jpg,557.668711147148,558.186369016551,558.386362737607,NaN,1,0,,,,
287,1,2,7700.jpg,558.398127908728,558.915783966898,560.315788011987,NaN,1,0,,,,
288,1,2,7920.jpg,560.327552277491,560.845217391829,561.939328195265,NaN,1,0,,,,
289,1,2,7234.jpg,561.951092460769,562.468749726428,562.86874501722,NaN,1,0,,,,
290,1,2,9700.jpg,562.880509886469,563.398177113914,564.692287977724,NaN,1,0,,,,
291,1,2,4320.jpg,564.704057073185,565.221707697653,566.42176571751,NaN,1,0,,,,
292,1,2,2490.jpg,566.433497682677,566.951132609786,568.445252288268,NaN,1,0,,,,
293,1,2,9360.jpg,568.457018666878,568.974685894322,571.068802735205,NaN,1,0,,,,
294,1,2,4561.jpg,571.080565491347,571.598221247644,573.398240808969,NaN,1,0,,,,
295,1,2,4571.jpg,573.410005074473,573.927658717665,576.127656966805,NaN,1,0,,,,
296,1,2,5120.jpg,576.139422137926,576.657078497968,576.951192984246,NaN,1,0,,,,
297,1,2,1945.jpg,576.962956646006,577.480610289197,578.174730329925,NaN,1,0,,,,
298,1,2,1945.jpg,578.186494897302,578.704179029595,579.998270875451,0.447253097888961,1,0,,,,
299,1,2,9101.jpg,580.010039970912,580.527691500997,583.021822348754,NaN,1,0,,,,
300,1,2,9042.jpg,583.033588727364,583.551241464938,585.551248106129,NaN,1,0,,,,
301,1,2,9042.jpg,585.5630159941,586.080670542908,587.280672716389,0.564792814473321,1,0,,,,
302,1,2,9001.jpg,587.292436378148,587.810108737422,588.810093341935,NaN,1,0,,,,
303,1,2,9001.jpg,588.821858513056,589.339527853606,589.633630868737,0.670689618219058,1,0,,,,
304,1,2,9000.jpg,589.645390606157,590.16306024858,592.057174312237,NaN,1,0,,,,
305,1,2,9700.jpg,592.068940690847,592.586606107058,593.98660139785,NaN,1,0,,,,
306,1,2,9001.jpg,593.998378040118,594.51602262714,595.116016770818,NaN,1,0,,,,
307,1,2,7920.jpg,595.127782243811,595.645442830065,596.845440173589,NaN,1,0,,,,
308,1,2,9042.jpg,596.857205646582,597.374872270282,597.974867319576,NaN,1,0,,,,
309,1,2,9101.jpg,597.986624943889,598.504281907676,600.504289756356,NaN,1,0,,,,
1,1,2,9360.jpg,0.025623826660194,0.555014264975398,1.64889564546183,0.129562988523503,0,1,,,,
2,1,2,9101.jpg,1.66066021283814,2.1783241196872,3.57831639175629,NaN,1,1,,,,
3,1,2,9331.jpg,3.5900812610048,4.10774788470508,5.10773671542984,NaN,1,1,,,,
4,1,2,4571.jpg,5.1195181876551,5.63716518965566,6.13127007639469,NaN,1,1,,,,
5,1,2,4571.jpg,6.14303554938806,6.66068979632382,8.86069679976117,NaN,0,1,,,,
6,1,2,7920.jpg,8.87246227275409,9.39011682156206,10.3901177271791,NaN,1,1,,,,
7,1,2,8465.jpg,10.4018813889384,10.919546201405,13.31954451092,NaN,1,1,,,,
8,1,2,7234.jpg,13.3313193419544,13.8489618158706,16.1430874714238,NaN,1,1,,,,
9,1,2,9700.jpg,16.1548529444171,16.6725080969695,17.1666241529838,NaN,1,1,,,,
10,1,2,9000.jpg,17.1783881166157,17.6960411560622,19.1901632495224,NaN,1,1,,,,
11,1,2,9000.jpg,19.2019272131538,19.7195929312375,20.1195791658602,NaN,0,1,,,,
12,1,2,5120.jpg,20.1313449407257,20.649000697023,22.8490077004603,NaN,1,1,,,,
13,1,2,2490.jpg,22.8607713622196,23.3784247035387,24.1784264543981,NaN,1,1,,,,
14,1,2,9001.jpg,24.1901886067958,24.7078446649653,26.7078491930502,NaN,1,1,,,,
15,1,2,9390.jpg,26.7196285521691,27.237272233574,29.7313985532469,NaN,1,1,26.9196678559429,,,
16,1,2,2221.jpg,29.7431619131339,30.2608249143664,32.4608234653792,NaN,1,1,,,,
17,1,2,1945.jpg,32.4725871271385,32.9902428834357,34.9902483171372,NaN,1,1,,,,
18,1,2,4561.jpg,35.0020134882579,35.5196698483001,36.4137938737431,NaN,1,1,,,,
19,1,2,4635.jpg,36.4255490830778,36.94320544312,37.2373184200364,NaN,1,1,,,,
20,1,2,9042.jpg,37.249098081028,37.7667505167296,39.0608586636895,NaN,1,1,,,,
21,1,2,9561.jpg,39.0726250422999,39.5902783836186,39.9902760893892,NaN,1,1,,,,
22,1,2,4320.jpg,40.0020693346341,40.5196964130628,40.9197185704897,NaN,1,1,,,,
23,1,2,7700.jpg,40.931458384337,41.449126819271,43.7432385886987,NaN,1,1,,,,
24,1,2,2720.jpg,43.7550019485857,44.2726652516903,44.7667716477908,NaN,1,1,,,,
25,1,2,4635.jpg,44.7785362151672,45.2962040463567,46.4961935412007,NaN,1,1,,,,
26,1,2,8465.jpg,46.5079593160658,47.0256099405342,47.2256078878022,NaN,1,1,,,,
27,1,2,4320.jpg,47.2373745682848,47.7550276077313,50.2491569461267,NaN,1,1,,,,
28,1,2,1945.jpg,50.260920607886,50.7785757604388,52.7785827035018,NaN,1,1,,,,
29,1,2,5120.jpg,52.7903454596444,53.3080018196861,53.9080007933203,NaN,1,1,,,,
30,1,2,9360.jpg,53.9197644550795,54.4374319843969,56.4374268525676,NaN,1,1,,,,
31,1,2,7234.jpg,56.4491917218161,56.9668471762411,58.460968062212,NaN,1,1,,,,
32,1,2,9331.jpg,58.4727332333332,58.9903880840134,59.6845045022742,NaN,1,1,,,,
33,1,2,9331.jpg,59.6962690696505,60.2139317690107,62.3080600810404,NaN,0,1,,,,
34,1,2,9700.jpg,62.3198192147152,62.8374677260772,64.8374761785017,NaN,1,1,,,,
35,1,2,2490.jpg,64.849240745878,65.3668949928137,66.261012377066,NaN,1,1,,,,
36,1,2,2221.jpg,66.2727817743994,66.7904305876336,69.2845753215165,NaN,1,1,,,,
37,1,2,4561.jpg,69.2963241915331,69.8139784384689,72.1081053015114,NaN,1,1,,,,
38,1,2,9561.jpg,72.1198698688877,72.6375244176957,73.4375243573213,NaN,1,1,,,,
39,1,2,7920.jpg,73.4492931509099,73.9669452847393,74.7669437150034,NaN,1,1,,,,
40,1,2,9042.jpg,74.7787097917412,75.2963637368048,75.4963592690947,NaN,1,1,,,,
41,1,2,4571.jpg,75.5081491937444,76.0257765740453,77.1198997542456,NaN,1,1,,,,
42,1,2,9000.jpg,-1.63617233165269,-1.11852200905696,0.681490307332751,NaN,1,1,,,78.7670668789028,
43,1,2,9001.jpg,0.693252157858296,1.21090881977261,2.61090743116029,NaN,1,1,,,,
44,1,2,9390.jpg,2.62267803598252,3.14035069712872,4.74033246404133,NaN,1,1,,,,
45,1,2,7700.jpg,4.75209823890691,5.26975007086412,6.26975308958754,NaN,1,1,,,,
46,1,2,9101.jpg,6.28151977006974,6.79916948892105,8.4932964727127,NaN,1,1,,,,
47,1,2,2720.jpg,8.50506224757783,9.02272223008731,11.5168440216753,NaN,1,1,,,,
48,1,2,2490.jpg,11.5286067778179,12.0462628359874,13.8462706242926,NaN,1,1,,,,
49,1,2,4320.jpg,13.8580315692016,14.375701513497,16.2698128603033,NaN,1,1,,,,
50,1,2,9561.jpg,16.281577125807,16.7992328821047,17.8933515342205,NaN,1,1,,,,
51,1,2,4571.jpg,17.9051151959798,18.4227724616385,19.3168886384019,NaN,1,1,,,,
52,1,2,4571.jpg,19.3286559226285,19.8463086602028,22.1404433719254,NaN,0,1,,,,
53,1,2,7920.jpg,22.1522006943665,22.6698679218111,24.3639773970094,NaN,1,1,,,,
54,1,2,9390.jpg,24.3757419643853,24.8934094937026,26.1875206593854,NaN,1,1,,,,
55,1,2,1945.jpg,26.1992861323788,26.7169403793146,27.3169369379702,NaN,1,1,,,,
56,1,2,2720.jpg,27.3287002978573,27.8463587710053,28.446356235278,NaN,1,1,,,,
57,1,2,2720.jpg,28.458119595165,28.9757759552067,31.1757838642611,NaN,0,1,,,,
58,1,2,4635.jpg,31.1875511484882,31.705202376701,32.9993229004249,NaN,1,1,,,,
59,1,2,4635.jpg,33.0110874678012,33.5287477521833,34.1287431033497,NaN,0,1,,,,
60,1,2,9042.jpg,34.1405236699579,34.6581742944263,36.8581719398221,NaN,1,1,,,,
61,1,2,9042.jpg,36.8699349978369,37.3876227525984,38.9875936521084,NaN,0,1,,,,
62,1,2,9101.jpg,38.9993594269736,39.5170257488016,41.8111414425689,NaN,1,1,,,,
63,1,2,7700.jpg,41.8229078211789,42.3405626718595,44.6346883274127,NaN,1,1,,,,
64,1,2,7234.jpg,44.6464580266183,45.1641077454697,46.8582739726603,NaN,1,1,,,,
65,1,2,2221.jpg,46.8699995985098,47.3876761839956,49.7876630223632,NaN,1,1,47.728921691004,,,
66,1,2,2221.jpg,49.799426080378,50.3170818366752,51.811202420774,NaN,0,1,,,,
67,1,2,8465.jpg,51.8229706106181,52.3406345174676,54.1406284196469,NaN,1,1,,,,
68,1,2,9331.jpg,54.1524005338306,54.6700677612757,55.4700468717124,NaN,1,1,,,,
69,1,2,4561.jpg,55.4818168727898,55.9994681010025,57.3994793910269,NaN,1,1,,,,
70,1,2,4561.jpg,57.4112364115954,57.9288918660204,59.6230158310891,NaN,0,1,,,,
71,1,2,9001.jpg,-2.31833943668789,-1.80068790660289,0.0934376282016274,NaN,1,1,,,61.7995860726983,0.152819230714613
72,1,2,9001.jpg,0.10520128996086,0.634618594911444,1.71697388714028,NaN,0,1,,,,
73,1,2,9000.jpg,1.7287435863459,2.24640749319497,2.84639318444806,NaN,1,1,,,,
74,1,2,9700.jpg,2.8581616761644,3.37582679050274,4.46993276398234,NaN,1,1,,,,
75,1,2,9360.jpg,4.48170185944309,4.99936546441995,7.39936317019055,NaN,1,1,,,,
76,1,2,5120.jpg,7.41113256752351,7.92879285190566,9.92879164441638,NaN,1,1,,,,
77,1,2,9561.jpg,9.94058368217202,10.4582110624729,10.658207802252,NaN,1,1,,,,
78,1,2,9561.jpg,10.6699856520095,11.1876269184363,12.6817499175136,NaN,0,1,,,,
79,1,2,7700.jpg,12.6935135792728,13.2111702411871,13.5052838218485,NaN,1,1,,,,
80,1,2,9101.jpg,13.5170459742462,14.0347147110524,15.034704145522,NaN,1,1,,,,
81,1,2,1945.jpg,15.0464693166427,15.564135940343,16.9641297217736,NaN,1,1,,,,
82,1,2,8465.jpg,16.9758930816606,17.4935491398301,18.587668697563,NaN,1,1,,,,
83,1,2,2221.jpg,18.5994329630671,19.1170887193643,20.3170902891002,NaN,1,1,,,,
84,1,2,4571.jpg,20.3288605920502,20.8465112165181,22.2465164690966,NaN,1,1,21.105432826017,21.2583540895698,,
85,1,2,2720.jpg,22.2582831495788,22.775934981536,24.2700570749962,NaN,1,1,,,,
86,1,2,9360.jpg,24.2818234536066,24.799478606159,26.7994864548391,NaN,1,1,,,,
87,1,2,9001.jpg,26.8112555502998,27.3289058728956,29.7289162573029,NaN,1,1,,,,
88,1,2,5120.jpg,29.7406811265514,30.2583368828487,30.9524533011095,NaN,1,1,,,,
89,1,2,7920.jpg,30.9642272265273,31.4818847940583,32.5759952956223,NaN,1,1,,,,
90,1,2,9000.jpg,32.5877577498923,33.1054135061895,35.3054226227332,NaN,1,1,,,,
91,1,2,9000.jpg,35.3171923219384,35.8348429464068,36.4348410144239,NaN,0,1,,,,
92,1,2,9042.jpg,36.4466101098847,36.9642628474589,39.0583848201704,NaN,1,1,,,,
93,1,2,2490.jpg,39.07015904746,39.5878172187358,41.48193218801,NaN,1,1,,,,
94,1,2,9331.jpg,41.4936967553863,42.011354021045,42.8113539606702,NaN,1,1,,,,
95,1,2,4561.jpg,42.8231164149406,43.3407712656208,44.3407727749823,NaN,1,1,,,,
96,1,2,7234.jpg,44.352541870443,44.87019490989,46.2702092186369,NaN,1,1,,,,
97,1,2,9390.jpg,46.2819653335887,46.7996467490316,47.9996214521325,NaN,1,1,,,,
98,1,2,9700.jpg,48.0113842082751,48.529041775806,48.8231550545952,NaN,1,1,,,,
99,1,2,4635.jpg,48.8349232444393,49.3525750763965,50.8466977736011,NaN,1,1,,,,
100,1,2,4320.jpg,50.8584665671897,51.3761283609333,52.7761221423639,NaN,1,1,,,,
101,1,2,4320.jpg,52.7878864078675,53.3055415604204,53.599656348571,NaN,0,1,,,,
102,1,2,2490.jpg,53.6114203122024,54.1290766722445,55.6231990675769,NaN,1,1,,,,
103,1,2,4320.jpg,55.6349766154622,56.1526299567809,58.152627843675,NaN,1,1,,,,
104,1,2,8465.jpg,58.1643924110513,58.6820593366238,60.8820566801473,NaN,1,1,,,,
105,1,2,7700.jpg,60.8938203419066,61.411491795564,63.6115000064906,NaN,1,1,,,,
106,1,2,2720.jpg,-0.000271986944426317,0.517370486971686,2.41149270118058,NaN,1,1,,,63.6233554374298,
107,1,2,9360.jpg,2.42325787230175,2.94091332672633,4.54091894155135,NaN,1,1,,,,
108,1,2,9700.jpg,4.55268471641693,5.07034107645859,5.47033546163402,NaN,1,1,,,,
109,1,2,9042.jpg,5.48209942526546,5.99975699279639,7.39975832103482,NaN,1,1,6.27043260414075,6.42340397849603,,
110,1,2,9042.jpg,7.41152137904965,7.92919102147243,10.0233057492487,NaN,0,1,,,,
111,1,2,5120.jpg,10.035070316625,10.5527263747945,11.0468520907225,NaN,1,1,,,,
112,1,2,9101.jpg,11.0586211861832,11.5762618488652,12.9762722332725,NaN,1,1,,,,
113,1,2,9390.jpg,12.9880307632029,13.5056868213724,14.9056902627167,NaN,1,1,,,,
114,1,2,4571.jpg,14.9174599619219,15.4351377548974,15.7292253745409,NaN,1,1,,,,
115,1,2,4571.jpg,15.7409890363001,16.2586463019588,18.5527918810844,NaN,0,1,,,,
116,1,2,9001.jpg,18.5645461848021,19.0821925830583,19.376306767464,NaN,1,1,,,,
117,1,2,9331.jpg,19.3880713348403,19.9057379585406,20.7998490034743,NaN,1,1,,,,
118,1,2,4561.jpg,20.8116105521276,21.3292780814445,23.3292738552323,NaN,1,1,,,,
119,1,2,9000.jpg,23.3410387244812,23.8587050463088,25.2586976202501,NaN,1,1,,,,
120,1,2,1945.jpg,25.2704679232002,25.7881375656234,27.8822438409752,NaN,1,1,,,,
121,1,2,7234.jpg,27.8940065971174,28.4116771451577,29.9058324445709,NaN,1,1,,,,
122,1,2,4635.jpg,29.9176072756059,30.4352047705484,31.5293276488769,NaN,1,1,,,,
123,1,2,9561.jpg,31.5410967443377,32.0587594436979,33.858753949622,NaN,1,1,,,,
124,1,2,2221.jpg,33.8705221394657,34.3881742732956,35.788177110895,NaN,1,1,,,,
125,1,2,7920.jpg,35.7999471119729,36.3176110188224,38.5176409645546,NaN,1,1,,,,
126,1,2,7234.jpg,38.5294031169524,39.0470377421884,41.5411921359851,NaN,1,1,,,,
127,1,2,9331.jpg,41.5529554958721,42.0705871023852,42.6705752086164,NaN,1,1,,,,
128,1,2,9360.jpg,42.6823403797375,43.1999943248011,43.6941106826876,NaN,1,1,,,,
129,1,2,7920.jpg,43.705877665042,44.2235325157226,44.6235338439606,NaN,1,1,,,,
130,1,2,4320.jpg,44.6352932795076,45.1529514507833,46.0470884567353,NaN,1,1,,,,
131,1,2,9000.jpg,46.0588711364499,46.5765006298566,46.776484690999,NaN,1,1,,,,
132,1,2,2221.jpg,46.7882489565031,47.3059173914371,48.6000267458862,NaN,1,1,,,,
133,1,2,7700.jpg,48.6117901057733,49.1294452583261,50.4235672914115,NaN,1,1,,,,
134,1,2,9001.jpg,50.4353285381926,50.952987615085,52.2471190062124,NaN,1,1,,,,
135,1,2,9042.jpg,52.2588724043135,52.7765465748212,53.7765302737166,NaN,1,1,,,,
136,1,2,9561.jpg,53.7882939354763,54.3059536161136,56.8000796339138,NaN,1,1,,,,
137,1,2,5120.jpg,56.8118438994175,57.3294996557147,59.8236718599774,NaN,1,1,,,,
138,1,2,9700.jpg,59.8353923539976,60.3530586758252,61.5530496800307,NaN,1,1,,,,
139,1,2,1945.jpg,61.5648175680021,62.0824853991917,64.2824797239923,NaN,1,1,,,,
140,1,2,8465.jpg,-1.00023244167278,-0.482577892864811,1.21158531560286,NaN,1,1,,,65.1531558183324,0.152760365615904
141,1,2,2720.jpg,1.22330913021824,1.74096428277107,3.03511771057629,NaN,1,1,,,,
142,1,2,4635.jpg,3.0468593356577,3.56453018556977,5.65867298747025,NaN,1,1,,,,
143,1,2,4561.jpg,5.67044630914324,6.18804923778771,8.29395781455332,NaN,1,1,,,,
144,1,2,4561.jpg,8.30570759018656,8.82336455397308,10.0234367618277,NaN,0,1,,,,
145,1,2,2490.jpg,10.0469429542854,10.5645516185036,12.3645566899581,NaN,1,1,,,,
146,1,2,2490.jpg,12.3763218610789,12.8940195776263,14.788099227841,NaN,0,1,,,,
147,1,2,9101.jpg,14.7998704364077,15.3175364563635,17.7175341621337,NaN,1,1,,,,
148,1,2,4571.jpg,17.7293020501052,18.2469762206133,20.046960764751,NaN,1,1,,,,
149,1,2,4571.jpg,20.0587250302551,20.576380182808,22.7763829600331,NaN,0,1,,,,
150,1,2,9390.jpg,22.7881647341305,23.3058099248974,24.5999325617277,NaN,1,1,,,,
151,1,2,9390.jpg,24.611697129104,25.1293534891456,26.3293550588819,NaN,0,1,,,,
152,1,2,9101.jpg,26.3411202300026,26.8588007398284,27.152889265089,NaN,1,1,,,,
153,1,2,9561.jpg,27.1646773785046,27.6823098906348,29.1764337953286,NaN,1,1,,,,
154,1,2,9561.jpg,29.1881944383649,29.7058652882774,29.9999667940469,NaN,0,1,,,,
155,1,2,4320.jpg,30.0117316632955,30.5293868158478,30.7294161578357,NaN,1,1,,,,
156,1,2,9042.jpg,30.7412057806132,31.2588035774284,32.8588079847641,NaN,1,1,31.2117902868963,,,
157,1,2,5120.jpg,32.8705722502677,33.3882277046928,33.6823455115664,NaN,1,1,,,,
158,1,2,4571.jpg,33.694118229495,34.2117751932815,36.2117703633244,NaN,1,1,,,,
159,1,2,9001.jpg,36.2235358363178,36.7411931019765,38.9412019166475,NaN,1,1,,,,
160,1,2,9390.jpg,38.9529649746623,39.4706312964904,39.8706416808973,NaN,1,1,,,,
161,1,2,4561.jpg,39.8823836078509,40.4000601933371,42.2000453412197,NaN,1,1,,,,
162,1,2,7700.jpg,42.2118141348083,42.7294653630211,44.0235940372977,NaN,1,1,,,,
163,1,2,7700.jpg,44.0353573971847,44.5530207002894,45.4471812522811,NaN,0,1,,,,
164,1,2,4635.jpg,45.4589443102959,45.9765460314511,47.8824352280149,NaN,1,1,,,,
165,1,2,9000.jpg,47.9059634571504,48.423633703318,50.7177481895965,NaN,1,1,,,,
166,1,2,9360.jpg,50.7295221150139,51.2471679095252,52.8471738262224,NaN,1,1,,,,
167,1,2,8465.jpg,52.8589386954709,53.3766300726998,53.9765919160409,NaN,1,1,,,,
168,1,2,7920.jpg,53.9883646339695,54.5060258239682,56.200138317889,NaN,1,1,,,,
169,1,2,2490.jpg,56.2119025833931,56.7295667921148,57.3296137634452,NaN,1,1,,,,
170,1,2,2221.jpg,57.3531501431326,57.8707419025018,59.8707702784982,NaN,1,1,,,,
171,1,2,7234.jpg,-2.51794193123988,-2.00028798617632,0.493840144729802,NaN,1,1,,,62.2590831111806,0.152794175313829
172,1,2,9700.jpg,0.505617994487238,1.02325956278628,3.51739373113878,NaN,1,1,,,,
173,1,2,2720.jpg,3.52915769477022,4.04680952672788,5.24681170020858,NaN,1,1,,,,
174,1,2,9331.jpg,5.25858079566933,5.77624591000767,8.27036015478825,NaN,1,1,,,,
175,1,2,1945.jpg,8.282129250249,8.79979466646,8.99977963321908,NaN,1,1,,,,
176,1,2,8465.jpg,9.0115426912339,9.52922652165535,12.0233386533296,NaN,1,1,,,,
177,1,2,7700.jpg,12.0350929570477,12.5527770893414,14.152752818808,NaN,1,1,,,,
178,1,2,7700.jpg,14.1645185936736,14.6822042353288,16.6821812930339,NaN,0,1,,,,
179,1,2,2490.jpg,16.6939449547931,17.2116070504089,18.5057218385596,NaN,1,1,,,,
180,1,2,9042.jpg,18.5174885190418,19.0351439734668,21.035151218402,NaN,1,1,,,,
181,1,2,9331.jpg,21.0469148801612,21.5645700327141,22.4586889263278,NaN,1,1,,,,
182,1,2,2221.jpg,22.4704553049378,22.9881089481291,23.788139980602,NaN,1,1,,,,
183,1,2,4635.jpg,23.7998728513862,24.317551851851,26.7175401995801,NaN,1,1,,,,
184,1,2,9360.jpg,26.7293047669564,27.2469722962733,29.7411411799403,NaN,1,1,,,,
185,1,2,9360.jpg,29.7528942761692,30.2705104871948,30.9646275092005,NaN,0,1,,,,
186,1,2,4561.jpg,30.9763899634704,31.4940475310018,33.6940563456728,NaN,1,1,,,,
187,1,2,9390.jpg,33.7058248373892,34.2234887442387,34.5175905518799,NaN,1,1,,,,
188,1,2,9000.jpg,34.529354817384,35.0470126867876,36.2470290482661,NaN,1,1,,,,
189,1,2,7234.jpg,36.2587794276442,36.7764548056412,37.7764354858136,NaN,1,1,,,,
190,1,2,9101.jpg,37.7882042794022,38.3058552057428,39.3999747634757,NaN,1,1,,,,
191,1,2,2720.jpg,39.411782498591,39.9293987096166,41.6235217690682,NaN,1,1,,,,
192,1,2,7920.jpg,41.6352845252109,42.1529442058481,43.2470595373688,NaN,1,1,,,,
193,1,2,7920.jpg,43.2588247084896,43.7764940490406,44.7764837853824,NaN,0,1,43.8942167002401,,,
194,1,2,4571.jpg,44.7882522770983,45.3059122596078,46.2000196820745,NaN,1,1,,,,
195,1,2,4320.jpg,46.2235563636345,46.7412045731239,46.9412010110309,NaN,1,1,,,,
196,1,2,4320.jpg,46.9529664840238,47.4706222403215,49.7647481977469,NaN,0,1,,,,
197,1,2,9001.jpg,49.7765178969526,50.294170936399,50.7882939354763,NaN,1,1,,,,
198,1,2,9700.jpg,50.8000624271922,51.3177145610221,51.7177017012618,NaN,1,1,,,,
199,1,2,9700.jpg,51.7294659667659,52.2471274586369,52.8471231116755,NaN,0,1,,,,
200,1,2,9561.jpg,52.8588916033918,53.3765645664103,55.2706665551755,NaN,1,1,,,,
201,1,2,1945.jpg,55.2824332356577,55.8000874825934,58.2942168209888,NaN,1,1,,,,
202,1,2,5120.jpg,58.3059847089608,58.8236362390458,60.9177645510754,NaN,1,1,,,,
203,1,2,9360.jpg,-1.01207338274162,-0.494421852656615,1.39970277653083,NaN,1,1,,,61.7884506072014,0.152725650300908
204,1,2,9390.jpg,1.41146794765154,1.92912430769366,2.42323915621864,NaN,1,1,,,,
205,1,2,2490.jpg,2.43500764793498,2.95266038550881,3.75265972139005,NaN,1,1,,,,
206,1,2,9561.jpg,3.76442428876635,4.28208004506359,4.57619513508644,NaN,1,1,,,,
207,1,2,9700.jpg,4.58795849497346,5.10562753365184,6.79973942382821,NaN,1,1,,,,
208,1,2,4320.jpg,6.81150338746011,7.32915914375735,7.82327429415454,NaN,1,1,,,,
209,1,2,4320.jpg,7.83503976714792,8.35274503050277,10.5527091680733,NaN,0,1,,,,
210,1,2,9001.jpg,10.5644767541726,11.0821246617897,11.5762383028255,NaN,1,1,,,,
211,1,2,9101.jpg,11.5880046814355,12.1056622489668,14.5998103034449,NaN,1,1,,,,
212,1,2,5120.jpg,14.6115531360156,15.1292100998021,16.1292194578432,NaN,1,1,,,,
213,1,2,9000.jpg,16.1409804027521,16.6586319328371,18.4586889263278,NaN,1,1,,,,
214,1,2,9000.jpg,18.4704540974485,18.9880675916233,19.1880543696166,NaN,0,1,,,,
215,1,2,8465.jpg,19.1998225594607,19.7174731839286,22.1174868889311,NaN,1,1,,,,
216,1,2,8465.jpg,22.1292496450737,22.6469038920095,23.046900692163,NaN,0,1,,,,
217,1,2,4561.jpg,23.0586679763901,23.5763352038348,25.5763318832396,NaN,1,1,,,,
218,1,2,9042.jpg,25.5880985637218,26.1057651874221,26.9998729117606,NaN,1,1,,,,
219,1,2,2720.jpg,27.011643818455,27.5292905185834,28.3292919675705,NaN,1,1,,,,
220,1,2,1945.jpg,28.3410891371555,28.8587101781377,31.1528388524143,NaN,1,1,,,,
221,1,2,1945.jpg,31.1646034197906,31.6822588742157,32.0822541650077,NaN,0,1,,,,
222,1,2,7920.jpg,32.0940208454899,32.6116769036594,33.611680224255,NaN,1,1,32.7294224971542,,,
223,1,2,7700.jpg,33.6234487159709,34.1410969254607,34.8352151549557,NaN,1,1,,,,
224,1,2,2221.jpg,34.8469824391827,35.3646330636507,35.658749663035,NaN,1,1,,,,
225,1,2,4635.jpg,35.6705172491343,36.1881796466223,36.5882027096663,NaN,1,1,,,,
226,1,2,4635.jpg,36.5999645601914,37.1175895255142,39.1175949592157,NaN,0,1,,,,
227,1,2,4635.jpg,39.1293607340808,39.6470128679107,41.6470240371859,NaN,0,1,,,,
228,1,2,4571.jpg,41.6587919251574,42.1764561338791,42.6705598131289,NaN,1,1,,,,
229,1,2,9331.jpg,42.6823286067174,43.1999792311854,45.0941056716069,NaN,1,1,,,,
230,1,2,7234.jpg,45.105872955834,45.623535353322,46.3176418097969,NaN,1,1,,,,
231,1,2,7920.jpg,46.3294084902791,46.8470696802779,49.2470704047714,NaN,1,1,,,,
232,1,2,8465.jpg,49.2588772342701,49.7764934452957,51.9765028637116,NaN,1,1,,,,
233,1,2,9331.jpg,51.9882671292157,52.5059225836403,54.600048782564,NaN,1,1,,,,
234,1,2,2490.jpg,54.6118136518126,55.1294694081098,56.3294718834627,NaN,1,1,,,,
235,1,2,5120.jpg,56.3412367527112,56.8589060932622,57.7530098932612,NaN,1,1,,,,
236,1,2,4561.jpg,57.7647753662541,58.2824447068051,60.282439876848,NaN,1,1,,,,
237,1,2,2720.jpg,-0.423939198088192,0.0937250106335341,2.18786509568326,NaN,1,1,,,60.5648438308922,0.152955073250723
238,1,2,4320.jpg,2.19961034323205,2.71726217518926,3.71726247706147,NaN,1,1,,,,
239,1,2,9390.jpg,3.7290306669056,4.24668340447988,6.44669312476799,NaN,1,1,,,,
240,1,2,9042.jpg,6.45845648465502,6.97612129712115,7.77611187870525,NaN,1,1,,,,
241,1,2,9700.jpg,7.78788248352748,8.30555846526931,9.90553872282044,NaN,1,1,,,,
242,1,2,7234.jpg,9.91730208270747,10.434959046494,10.834955846648,NaN,1,1,,,,
243,1,2,4571.jpg,10.8467219233853,11.3643779815552,11.8584922263353,NaN,1,1,,,,
244,1,2,9001.jpg,11.8702755097943,12.3879128518815,13.987919070451,NaN,1,1,,,,
245,1,2,9101.jpg,13.9996875621669,14.5173481484212,16.4114622120783,NaN,1,1,,,,
246,1,2,1945.jpg,16.4232282888156,16.9408982331115,17.4350151947424,NaN,1,1,,,,
247,1,2,7700.jpg,17.4467628572697,17.9644506120312,20.3644289979743,NaN,1,1,,,,
248,1,2,9561.jpg,20.3761974896906,20.8938514347537,23.0938705130834,NaN,1,1,,,,
249,1,2,2221.jpg,23.1056239111845,23.6233065341166,25.6232863086725,NaN,1,1,,,,
250,1,2,9000.jpg,25.6468178584032,26.1644739165727,26.5644698111096,NaN,1,1,,,,
251,1,2,4635.jpg,26.5762334728688,27.0938904366553,27.7880071567888,NaN,1,1,,,,
252,1,2,9360.jpg,27.811571912473,28.3291923497109,29.3291911422216,NaN,1,1,,,,
253,1,2,9360.jpg,29.3409572189594,29.8586217295533,31.7527412269119,NaN,0,1,,,,
254,1,2,2221.jpg,31.7645045867989,32.2821757385836,34.1762934247081,NaN,1,1,,,,
255,1,2,9042.jpg,34.1880501434043,34.7057080128079,36.1057304721071,NaN,1,1,,,,
256,1,2,9331.jpg,36.1174733046778,36.6351408339947,38.5292515770566,NaN,1,1,,,,
257,1,2,9001.jpg,38.5410402942171,39.0586845793669,39.552791881084,NaN,1,1,,,,
258,1,2,9101.jpg,39.5645537316095,40.0822161290976,42.0822158272254,NaN,1,1,,,,
259,1,2,5120.jpg,42.0939822058353,42.6116373583882,42.9057536559003,NaN,1,1,,,,
260,1,2,4635.jpg,42.9175167139147,43.4351727720846,44.7292908808304,NaN,1,1,,,,
261,1,2,4635.jpg,44.7410587688019,45.2587284112251,45.6587119289975,NaN,0,1,44.8117207355181,44.9646510552402,,
262,1,2,4320.jpg,45.6704822319475,46.188131347054,46.3881277849609,NaN,1,1,,,,
263,1,2,1945.jpg,46.3998917485924,46.9175444861667,48.6116723755749,NaN,1,1,,,,
264,1,2,4571.jpg,48.6234351317175,49.1411032647793,51.3411280786827,NaN,1,1,,,,
265,1,2,9360.jpg,51.3528941554205,51.8705206301042,54.2705865590151,NaN,1,1,,,,
266,1,2,8465.jpg,54.2940773559853,54.8117180186673,57.3058449420846,NaN,1,1,,,,
267,1,2,7920.jpg,57.3176143394176,57.8352646620133,59.7293892912007,NaN,1,1,,,,
268,1,2,9700.jpg,-1.43558573339442,-0.917916090971175,0.576195135086436,NaN,1,1,,,61.0235997728714,0.15279447718558
269,1,2,9700.jpg,0.587957589356392,1.10561183629216,2.99973676735226,NaN,0,1,,,,
270,1,2,9700.jpg,3.01150163660077,3.52919512693597,5.62328811990619,NaN,0,1,,,,
271,1,2,9390.jpg,5.63505027230394,6.15271055668563,7.35270548523113,NaN,1,1,,,,
272,1,2,7700.jpg,7.36446944886256,7.88213788379653,8.08212405804534,NaN,1,1,,,,
273,1,2,7234.jpg,8.09389104039974,8.61154347610182,9.50566206784333,NaN,1,1,,,,
274,1,2,9000.jpg,9.51742693709184,10.0350857121121,10.5291960325526,NaN,1,1,,,,
275,1,2,4561.jpg,10.5409645242689,11.0586178655876,12.3527347668442,NaN,1,1,,,,
276,1,2,2490.jpg,12.3645065791557,12.8821680710271,13.9762785725907,NaN,1,1,,,,
277,1,2,2490.jpg,13.9880437437114,14.5057109711565,15.5056991981364,NaN,0,1,,,,
278,1,2,9561.jpg,15.5174695010865,16.0351566521035,16.3292355174499,NaN,1,1,,,,
279,1,2,2720.jpg,16.3410091409951,16.8586591617186,17.7527810740557,NaN,1,1,,,,
280,1,2,9001.jpg,17.7645383964964,18.2821935490492,19.9763181178623,NaN,1,1,,,,
281,1,2,9101.jpg,19.9880814777493,20.5057613838308,21.7998864356396,NaN,1,1,,,,
282,1,2,4320.jpg,21.8116567385896,22.329279590806,24.129287077239,NaN,1,1,,,,
283,1,2,2221.jpg,24.1410495315095,24.6587058915511,26.75283148673,NaN,1,1,,,,
284,1,2,8465.jpg,26.7645972615956,27.2822509047869,28.9763757754722,NaN,1,1,,,,
285,1,2,2720.jpg,28.9881397391036,29.5058015328473,29.7057946501586,NaN,1,1,,,,
286,1,2,7920.jpg,29.7175558969398,30.2352246337459,30.8352100231264,NaN,1,1,,,,
287,1,2,1945.jpg,30.8469733830134,31.3646493647548,33.6587578135873,NaN,1,1,,,,
288,1,2,2490.jpg,33.6705241921973,34.1881902121527,35.0823190675528,NaN,1,1,,,,
289,1,2,9042.jpg,35.0940658244631,35.6117288256955,37.9058445194632,NaN,1,1,,,,
290,1,2,4561.jpg,37.9176081812225,38.4352711824549,39.1293812613976,NaN,1,1,,,,
291,1,2,4571.jpg,39.1411461306461,39.6588033963048,41.5529274217479,NaN,1,1,,,,
292,1,2,7234.jpg,41.5646898760178,42.0823586128245,42.5764628958186,NaN,1,1,,,,
293,1,2,5120.jpg,42.5999995773786,43.1176498999744,43.5176626993602,NaN,1,1,,,,
294,1,2,9700.jpg,43.5294100600154,44.0470637032063,45.9411919548616,NaN,1,1,44.9647938408389,,,
295,1,2,9000.jpg,45.9529568241101,46.4706125804073,47.8706142105179,NaN,1,1,,,,
296,1,2,4635.jpg,47.8823956827432,48.4000450997219,49.4941543937966,NaN,1,1,,,,
297,1,2,7700.jpg,49.5059198667896,50.0235858867454,52.1177455934944,NaN,1,1,,,,
298,1,2,9390.jpg,52.1295406499735,52.6471324093422,53.3530025275768,NaN,1,1,,,,
299,1,2,9331.jpg,53.3648833157895,53.8824222475055,55.4824281642027,NaN,1,1,,,,
300,1,2,9561.jpg,55.4941912222175,56.0118521103441,58.5059796375058,NaN,1,1,,,,
301,1,2,9360.jpg,58.5177445067543,59.0353966405837,59.3295111268621,NaN,1,1,,,,
302,1,2,5120.jpg,59.341274184877,59.8589335636416,61.5530677923684,NaN,1,1,,,,
303,1,2,8465.jpg,-0.68266791118549,-0.165016984845352,0.435020024699043,NaN,1,1,,,62.0943233215371,0.152821041948755
304,1,2,9700.jpg,0.446777649012347,0.964401104973149,2.05852036083388,NaN,1,1,,,,
305,1,2,9001.jpg,2.0702855319546,2.58794008076302,4.28206404583125,NaN,1,1,,,,
306,1,2,4320.jpg,4.29382831133535,4.81149463316297,5.30559891615758,NaN,1,1,,,,
307,1,2,2720.jpg,5.31736227604461,5.83503584280788,8.23503052985507,NaN,1,1,,,,
308,1,2,4561.jpg,8.24682045450481,8.7644502497842,10.4585745167251,NaN,1,1,,,,
309,1,2,1945.jpg,10.4703381784843,10.987994538526,12.482116330114,NaN,1,1,,,,
310,1,2,9101.jpg,12.4938875386811,13.0115369556602,15.1056631545835,NaN,1,1,,,,
311,1,2,9101.jpg,15.117434966895,15.6350919306815,17.5292072018278,NaN,0,1,,,,
312,1,2,2221.jpg,17.5409778066501,18.0586278273736,18.2586354345558,NaN,1,1,,,,
313,1,2,4635.jpg,18.2703888326569,18.7880451926985,21.188054973361,NaN,1,1,,,,
314,1,2,7920.jpg,21.1998382568204,21.7174900887776,22.211619427173,NaN,1,1,,,,
315,1,2,7920.jpg,22.2233559204251,22.7410116767223,24.5410750095316,NaN,0,1,,,,
316,1,2,7920.jpg,24.5528368600571,25.0704382793397,25.9645967182255,NaN,0,1,,,,
317,1,2,9561.jpg,25.9763999252564,26.4939871565407,28.7998692289184,NaN,1,1,,,,
318,1,2,9561.jpg,28.8116325888054,29.3292898544642,29.6234076613378,NaN,0,1,,,,
319,1,2,4571.jpg,29.6351658893959,30.1528240606713,30.6469370979626,NaN,1,1,,,,
320,1,2,2490.jpg,30.6704698551825,31.1881225927568,31.9881261548503,NaN,1,1,,,,
321,1,2,9360.jpg,31.9998886091203,32.5175437616731,33.4116614477975,NaN,1,1,,,,
322,1,2,7234.jpg,33.4234257133016,33.9410962613415,36.0352088760114,NaN,1,1,,,,
323,1,2,9331.jpg,36.0469722358985,36.5646394633436,36.7646440518024,NaN,1,1,,,,
324,1,2,7700.jpg,36.7763896012234,37.2940456593933,38.694049704482,NaN,1,1,,,,
325,1,2,9000.jpg,38.7058145737305,39.2234811974308,40.623472865755,NaN,1,1,,,,
326,1,2,9042.jpg,40.6352419612158,41.1528934913008,41.6470086416984,NaN,1,1,,,,
327,1,2,9390.jpg,41.6587738128192,42.1764425496253,42.8705502135895,NaN,1,1,42.8235701290109,,,
328,1,2,9331.jpg,42.8823144790936,43.3999669147956,44.3999753672201,NaN,1,1,,,,
329,1,2,2221.jpg,44.4117360102564,44.9293884459585,45.6235045623471,NaN,1,1,,,,
330,1,2,2221.jpg,45.6352685259785,46.152925489765,47.5529295348538,NaN,0,1,,,,
331,1,2,4571.jpg,47.5646938003579,48.0823480472936,50.4823590354454,NaN,1,1,,,,
332,1,2,4561.jpg,50.4941239046939,51.0117805666082,52.8117856380627,NaN,1,1,,,,
333,1,2,9042.jpg,52.8235508091839,53.341205659864,53.635318636781,NaN,1,1,,,,
334,1,2,4635.jpg,53.6470838079017,54.1647425829219,55.9647488618657,NaN,1,1,,,,
335,1,2,9000.jpg,55.9765161460928,56.4941806566867,58.4941963540468,NaN,1,1,,,,
336,1,2,9001.jpg,58.5177357524572,59.0353607177799,60.7294867959545,NaN,1,1,,,,
337,1,2,5120.jpg,-1.04720618693318,-0.529571561697139,0.270420227376235,NaN,1,1,,,61.7883968739311,
338,1,2,7234.jpg,0.282184492879878,0.799849607218675,2.59984682999357,NaN,1,1,,,,
339,1,2,9101.jpg,2.61160958613618,3.12926473868856,5.2233915413567,NaN,1,1,,,,
340,1,2,9561.jpg,5.23517301358197,5.75280975192436,6.64694011668553,NaN,1,1,,,,
341,1,2,9561.jpg,6.65869321291439,7.17634866733943,9.67047710011775,NaN,0,1,,,,
342,1,2,2720.jpg,9.68224800681264,10.1998983294084,12.4940254943235,NaN,1,1,,,,
343,1,2,2490.jpg,12.5057900616994,13.0234452142522,14.0234458179971,NaN,1,1,,,,
344,1,2,8465.jpg,14.0469731415155,14.5646421801939,15.6587508705243,NaN,1,1,,,,
345,1,2,9360.jpg,15.6705157397728,16.1881727035593,18.0822970308745,NaN,1,1,,,,
346,1,2,7920.jpg,18.0940606926338,18.6117173545481,20.4117239353641,NaN,1,1,,,,
347,1,2,4320.jpg,20.4234915214633,20.941143353421,21.4352663524978,NaN,1,1,,,,
348,1,2,9390.jpg,21.4470294105126,21.9646906005114,22.9646809405976,NaN,1,1,,,,
349,1,2,9700.jpg,22.9764488285691,23.4941012642712,24.5882449717883,NaN,1,1,,,,
350,1,2,9700.jpg,24.5999844837634,25.1176417494225,25.4117583488069,NaN,0,1,,,,
351,1,2,7700.jpg,25.4235195955876,25.9411777668633,27.0352940040011,NaN,1,1,,,,
352,1,2,1945.jpg,27.0470634013341,27.5647270063109,29.9647259195708,NaN,1,1,,,,
353,1,2,9000.jpg,29.9764886757134,30.494154997541,31.2941434660193,NaN,1,1,,,,
354,1,2,2490.jpg,31.3059131652244,31.823564091565,33.2235681366537,NaN,1,1,,,,
355,1,2,9331.jpg,33.2353354208808,33.7529987239855,34.7529923846673,NaN,1,1,,,,
356,1,2,4561.jpg,34.7647545370651,35.2824102933623,35.5765284021081,NaN,1,1,,,,
357,1,2,9042.jpg,35.58829236574,36.1059568763339,36.9059450429395,NaN,1,1,,,,
358,1,2,1945.jpg,36.9177099121885,37.4353668759745,39.6353759925182,NaN,1,1,,,,
359,1,2,7920.jpg,39.6471393524052,40.1647957124474,42.2589222132433,NaN,1,1,42.2119629578533,,,
360,1,2,2720.jpg,42.2707136472541,42.7883413294276,43.5883397596913,NaN,1,1,42.3648673165576,,,
361,1,2,9101.jpg,43.6001046289398,44.1177661208112,45.2118820560763,NaN,1,1,,,,
362,1,2,5120.jpg,45.2236445103463,45.741301776005,47.035421695985,NaN,1,1,,,,
363,1,2,7234.jpg,47.0471856596164,47.5648423215307,49.5648513776996,NaN,1,1,,,,
364,1,2,9390.jpg,49.5766141338422,50.0942744182239,52.0942768332025,NaN,1,1,,,,
365,1,2,7700.jpg,52.106041702451,52.6236992699819,53.3178144807539,NaN,1,1,,,,
366,1,2,4571.jpg,53.3413484454632,53.8590090317175,54.8589999755482,NaN,1,1,,,,
367,1,2,9360.jpg,54.8707636373074,55.388421506711,57.1884507279497,NaN,1,1,,,,
368,1,2,9360.jpg,-2.75312641596975,-2.23546522597098,0.0586888055786403,NaN,0,1,,,59.9532357541175,
369,1,2,2221.jpg,-0.0824853991912278,0.435150735406296,1.03514759593463,NaN,1,1,,,0.152837041180192,
370,1,2,9001.jpg,1.04691608765052,1.56456942896966,3.96457739839843,NaN,1,1,,,,
371,1,2,9561.jpg,3.97634558824211,4.49399983517787,5.89400237090513,NaN,1,1,,,,
372,1,2,8465.jpg,5.90576633453702,6.42342027960058,8.823433078986,NaN,1,1,,,,
373,1,2,4320.jpg,8.83519704261744,9.35285340265955,10.8469760998646,NaN,1,1,,,,
374,1,2,4320.jpg,10.8587388560068,11.3763949141762,11.5763913520832,NaN,0,1,,,,
375,1,2,9700.jpg,11.5881559194595,12.105822845032,12.9999305693705,NaN,1,1,,,,
376,1,2,4635.jpg,13.0234591003787,13.5411148566759,13.9411119587016,NaN,1,1,,,,
377,1,2,9700.jpg,13.9528822616517,14.470531980503,15.4705331879923,NaN,1,1,,,,
378,1,2,2221.jpg,15.482298359113,15.9999664921747,16.7999591868647,NaN,1,1,,,,
379,1,2,9042.jpg,16.811716811178,17.3293846423676,17.9293721448544,NaN,1,1,,,,
380,1,2,4635.jpg,17.9411379197195,18.4587930722723,19.5529129318775,NaN,1,1,,,,
381,1,2,7700.jpg,19.5646781029986,20.0823450285711,20.3764903058241,NaN,1,1,,,,
382,1,2,9390.jpg,20.3882277046932,20.9058925171594,22.3058721105917,NaN,1,1,,,,
383,1,2,9001.jpg,22.3176354704788,22.8353042072849,23.2352922531418,NaN,1,1,,,,
384,1,2,9001.jpg,23.2470541036673,23.7647201236227,26.0588373267519,NaN,0,1,,,,
385,1,2,9001.jpg,26.0706012903834,26.5882579522977,28.2823788986434,NaN,0,1,,,,
386,1,2,4320.jpg,28.2941446735085,28.811801637295,29.611799765687,NaN,1,1,,,,
387,1,2,4320.jpg,29.6235628237018,30.1412212968498,31.9412269720488,NaN,0,1,,,,
388,1,2,2490.jpg,31.9529966712544,32.4706466919779,33.2706484428372,NaN,1,1,,,,
389,1,2,4571.jpg,33.282410595235,33.8000681627659,35.8941937579452,NaN,1,1,,,,
390,1,2,9101.jpg,35.9059562122152,36.4236083460451,37.8236145042397,NaN,1,1,,,,
391,1,2,1945.jpg,37.8353854109346,38.3530502234007,39.4471571024969,NaN,1,1,,,,
392,1,2,9561.jpg,39.458921368001,39.9765783317876,41.2707064023193,NaN,1,1,,,,
393,1,2,8465.jpg,41.2824721771849,41.8001191791855,42.8001378952681,NaN,1,1,,,,
394,1,2,5120.jpg,42.8118876709013,43.3295382953697,44.6236576116048,NaN,1,1,,,,
395,1,2,2720.jpg,44.6354541774449,45.1530821614906,45.7530796257629,NaN,1,1,44.6590291967873,44.8119546865528,,
396,1,2,2720.jpg,45.7648484193514,46.282499345692,48.4825081603631,NaN,0,1,,,,
397,1,2,9000.jpg,48.5060369932435,49.023690938307,50.5178139373838,NaN,1,1,,,,
398,1,2,4561.jpg,50.5295848440787,51.0472472415668,52.1413598562367,NaN,1,1,,,,
399,1,2,7920.jpg,52.1531241217403,52.6707777649317,53.1648929153289,NaN,1,1,,,,
400,1,2,9331.jpg,53.1766586901945,53.6943216914269,55.4943174048403,NaN,1,1,,,,
401,1,2,9360.jpg,55.5060868021733,56.0237380303861,56.6237364002754,NaN,1,1,,,,
402,1,2,7234.jpg,56.6355048919918,57.1531678932242,58.4472766439289,NaN,1,1,,,,
403,1,2,9101.jpg,-2.71787407034662,-2.20021861592159,0.293913439324569,NaN,1,1,,,61.0238506287551,0.152844889860262
404,1,2,4320.jpg,0.305729626864832,0.82333195176443,2.82333859295522,NaN,1,1,,,,
405,1,2,4320.jpg,2.83510134909739,3.35277702896656,5.64689574145723,NaN,0,1,,,,
406,1,2,7700.jpg,5.65864883768609,6.17633266810753,6.97630604297046,NaN,1,1,,,,
407,1,2,9000.jpg,6.98806940285749,7.50573663030218,8.90572950611568,NaN,1,1,,,,
408,1,2,9360.jpg,8.91749316787491,9.43515435787367,11.1292719836242,NaN,1,1,,,,
409,1,2,9561.jpg,11.1410377584893,11.6587040803174,11.8586884433321,NaN,1,1,,,,
410,1,2,8465.jpg,11.870477764237,12.3881102763671,14.7881203589022,NaN,1,1,,,,
411,1,2,8465.jpg,14.7998855300229,15.3175400788309,16.611663319406,NaN,0,1,,,,
412,1,2,7234.jpg,16.6234260755482,17.1410923973763,18.1410818318459,NaN,1,1,,,,
413,1,2,4635.jpg,18.1528602853477,18.6705139285391,20.8705115739349,NaN,1,1,,,,
414,1,2,2720.jpg,20.8822761413112,21.3999321994806,22.2940486781163,NaN,1,1,,,,
415,1,2,4571.jpg,22.3058159623433,22.8234702092791,23.6234716582662,NaN,1,1,,,,
416,1,2,4571.jpg,23.6352344144084,24.1528901707056,26.6470176978673,NaN,0,1,,,,
417,1,2,9331.jpg,26.6587834727329,27.1764694162603,27.6705552850444,NaN,1,1,,,,
418,1,2,2221.jpg,27.6940856272863,28.2117510434973,29.7058598545759,NaN,1,1,,,,
419,1,2,7920.jpg,29.7176256294415,30.2352813857387,32.6352914682739,NaN,1,1,,,,
420,1,2,5120.jpg,32.6470563375224,33.1647114900748,33.6588468659165,NaN,1,1,,,,
421,1,2,9042.jpg,33.6823904905395,34.2000242101585,34.8000117126453,NaN,1,1,,,,
422,1,2,9700.jpg,34.8117811099783,35.3294429037219,37.0235547938983,NaN,1,1,,,,
423,1,2,9001.jpg,37.0353752076503,37.5529745138269,38.3529753590697,NaN,1,1,,,,
424,1,2,4561.jpg,38.3647396245733,38.8824213418889,40.176516810212,NaN,1,1,,,,
425,1,2,1945.jpg,40.188283188822,40.7059464919271,42.1059405752299,NaN,1,1,,,,
426,1,2,2490.jpg,42.129466691259,42.6471453898516,45.1412545028029,NaN,1,1,,,,
427,1,2,9390.jpg,45.1530208814129,45.6706932406869,47.270677422578,NaN,1,1,,,,
428,1,2,2490.jpg,47.2824444049329,47.8001095192712,48.494217485108,NaN,1,1,,,,
429,1,2,1945.jpg,48.5059814487395,49.023635393803,51.023645355589,NaN,1,1,50.1766765006601,,,
430,1,2,1945.jpg,51.0354108285819,51.5530644717733,51.9530603663102,NaN,0,1,,,,
431,1,2,7700.jpg,51.9648258393031,52.4824809918559,53.0824784561287,NaN,1,1,,,,
432,1,2,2221.jpg,53.0942439291216,53.6119014966525,55.1060211751346,NaN,1,1,,,,
433,1,2,5120.jpg,55.1177863462553,55.6354430081697,57.8354527284578,NaN,1,1,,,,
434,1,2,9360.jpg,57.8472160883448,58.364884825151,60.8590129560575,NaN,1,1,,,,
435,1,2,9331.jpg,-0.776645890808595,-0.258962060387148,1.54101523881582,NaN,1,1,,,61.6473228907653,
436,1,2,7920.jpg,1.55277890057505,2.07043435500009,4.47044564502403,NaN,1,1,,,,
437,1,2,9390.jpg,4.48220779742178,4.99988740163099,6.79987466261991,NaN,1,1,6.72937359384105,,,
438,1,2,9101.jpg,6.81163741876253,7.32929287318757,8.32929317505977,NaN,1,1,,,,
439,1,2,9000.jpg,8.34106166677566,8.85872466800856,9.55283112448342,NaN,1,1,,,,
440,1,2,9561.jpg,9.56459961619976,10.0822843522378,12.2822756583155,NaN,1,1,,,,
441,1,2,9561.jpg,12.2940227170984,12.8116793790123,14.7058031025831,NaN,0,1,,,,
442,1,2,8465.jpg,14.7175812542132,15.2352557265931,15.6352404518548,NaN,1,1,,,,
443,1,2,2720.jpg,15.6587517761413,16.1764057212044,18.1764153811182,NaN,1,1,,,,
444,1,2,9001.jpg,18.1881781372608,18.7058378178981,20.7058417422381,NaN,1,1,,,,
445,1,2,4571.jpg,20.7176105358262,21.235261764039,21.4352579000738,NaN,1,1,,,,
446,1,2,4635.jpg,21.447052352808,21.9646818462147,23.9647090147218,NaN,1,1,,,,
447,1,2,9042.jpg,23.9764506398033,24.4941172635035,25.1882243237233,NaN,1,1,,,,
448,1,2,7234.jpg,25.1999910042055,25.7176521942042,26.0117570205689,NaN,1,1,,,,
449,1,2,4561.jpg,26.0235221916896,26.5411885135172,29.0353057770208,NaN,1,1,,,,
450,1,2,9700.jpg,29.0470754762264,29.5647396849481,31.7647367265995,NaN,1,1,,,,
451,1,2,9700.jpg,31.7764988789972,32.2941573521452,33.4941574125196,NaN,0,1,,,,
452,1,2,4320.jpg,33.5059431109571,34.023593735425,35.317720598468,NaN,1,1,,,,
453,1,2,2221.jpg,35.3294622235489,35.8471699018824,36.8471209985696,NaN,1,1,,,,
454,1,2,9101.jpg,36.8588843584566,37.3765660757717,37.7765375186518,NaN,1,1,,,,
455,1,2,4561.jpg,37.7883020860281,38.3059853127052,39.5059600158061,NaN,1,1,,,,
456,1,2,9000.jpg,39.5177245831824,40.0353924143715,40.3294951276303,NaN,1,1,,,,
457,1,2,9000.jpg,40.3412584875173,40.8589142438145,41.8589166587931,NaN,0,1,,,,
458,1,2,1945.jpg,41.8706818299138,42.388336680594,43.9883419935468,NaN,1,1,,,,
459,1,2,7920.jpg,44.0001113908797,44.5177617134755,45.4118890595137,NaN,1,1,,,,
460,1,2,9700.jpg,45.423643665104,45.941312100038,46.341324295679,NaN,1,1,,,,
461,1,2,2720.jpg,46.3530843349708,46.8707292238651,47.9648376123228,NaN,1,1,,,,
462,1,2,9331.jpg,47.9766030853161,48.4942588416134,48.694253166414,NaN,1,1,,,,
463,1,2,9042.jpg,48.7060162244288,49.2236855649799,49.7177892442296,NaN,1,1,,,,
464,1,2,4635.jpg,49.7295529059888,50.2472110772646,51.3413599166111,NaN,1,1,,,,
465,1,2,9360.jpg,51.3531096922443,51.870749147437,53.8707560905,NaN,1,1,,,,
466,1,2,9360.jpg,53.8825215634934,54.4001854703429,55.294318853827,NaN,0,1,,,,
467,1,2,9360.jpg,55.3060601770362,55.8237153295886,56.5178326534665,NaN,0,1,,,,
468,1,2,8465.jpg,56.529597522715,57.0472614295645,57.9413706632649,NaN,1,1,,,,
469,1,2,7234.jpg,57.9531343250242,58.4707909869385,58.9649058354635,NaN,1,1,,,,
470,1,2,4571.jpg,58.9766713084564,59.4943400452626,60.4943294797322,NaN,1,1,,,,
471,1,2,2490.jpg,60.5061079332345,61.0237612745532,61.6237563238474,NaN,1,1,,,,
472,1,2,4320.jpg,-0.929592813507043,-0.411937057209798,1.38806831611691,NaN,1,1,,,62.5650149924882,
473,1,2,7700.jpg,1.41159413027435,1.92926437644201,3.32925634663889,NaN,1,1,,,,
474,1,2,7700.jpg,3.34104325256567,3.91751158208581,4.08220435607791,NaN,0,1,,,,
475,1,2,5120.jpg,4.09398190396314,4.61162286851732,6.01162721547871,NaN,1,1,,,,
476,1,2,5120.jpg,6.02339057536574,6.5410590102997,7.54104874664154,NaN,0,1,,,,
477,1,2,9390.jpg,7.55281754022963,8.07046937218729,10.4704788509775,NaN,1,1,,,,
478,1,2,9561.jpg,10.4940079857302,11.0116658551333,11.6116618100446,NaN,1,1,,,,
479,1,2,9561.jpg,11.6234278867823,12.1410993404393,13.3411123813225,NaN,0,1,,,,
480,1,2,9001.jpg,13.352847063341,13.8705067439782,15.1646360219993,NaN,1,1,,,,
481,1,2,9700.jpg,15.1763900238448,15.6940714392881,16.094066428208,NaN,1,1,,,,
482,1,2,2221.jpg,16.1058125813734,16.6234641114584,18.823472322385,NaN,1,1,,,,
483,1,2,9331.jpg,18.8352510777595,19.3529014003557,20.6470131697829,NaN,1,1,,,,
484,1,2,2490.jpg,20.6587798502655,21.176445870221,23.0705584245165,NaN,1,1,,,,
485,1,2,8465.jpg,23.0823226900202,23.6000053129528,24.4940964343145,NaN,1,1,,,,
486,1,2,9360.jpg,24.5058603979464,25.0235206823281,26.2235340250841,NaN,1,1,,,,
487,1,2,2720.jpg,26.2352847063344,26.7529537450127,28.6470756573494,NaN,1,1,,,,
488,1,2,9042.jpg,28.6588296591954,29.1882581334212,30.5882525185962,NaN,1,1,,,,
489,1,2,4561.jpg,30.6000161803554,31.1176734460141,33.3177045992361,NaN,1,1,,,,
490,1,2,7700.jpg,33.3294534692523,33.8471149611237,36.2471362129336,NaN,1,1,,,,
491,1,2,9000.jpg,36.2589004784377,36.7765529141393,37.1765466955699,NaN,1,1,,,,
492,1,2,5120.jpg,37.1883061311173,37.7059618874146,38.4000770981861,NaN,1,1,,,,
493,1,2,5120.jpg,38.4118522310928,38.9295022518163,39.9295076855178,NaN,0,1,,,,
494,1,2,4635.jpg,39.9412544424285,40.4589216698732,41.6589105609723,NaN,1,1,,,,
495,1,2,7234.jpg,41.6706751283486,42.1883438651548,44.1883381295811,NaN,1,1,,,,
496,1,2,7920.jpg,44.2118714905459,44.7295326805447,46.9295424008328,NaN,1,1,,,,
497,1,2,9001.jpg,46.9412979120398,47.458967554463,48.6589573511792,NaN,1,1,47.9649185141002,,,
498,1,2,4571.jpg,48.6707216166833,49.1883761654913,49.5883720600282,NaN,1,1,,,,
499,1,2,9390.jpg,49.600136627404,50.1177969117862,51.2236768106832,NaN,1,1,,,,
500,1,2,9101.jpg,51.2472143978598,51.7648737766249,54.0589876591584,NaN,1,1,,,,
501,1,2,1945.jpg,54.0707579621085,54.5884206614687,56.4002044882977,NaN,1,1,,,,
502,1,2,9561.jpg,56.4119449058899,56.9296121333346,59.0237265592386,NaN,1,1,,,,
503,1,2,9561.jpg,59.0354911266145,59.5531477885288,60.7531508676266,NaN,0,1,,,,
504,1,2,4320.jpg,-1.64733285255124,-1.12966170076652,0.376237638706698,NaN,1,1,,,62.4591990905192,
505,1,2,4320.jpg,0.388042053226854,0.905645283743524,1.1056513815638,NaN,0,1,,,,
506,1,2,9360.jpg,1.11741202460053,1.63506174345139,4.03506126045568,NaN,1,1,,,,
507,1,2,9001.jpg,4.04682280910902,4.56449305527667,6.96474886186616,NaN,1,1,,,,
508,1,2,9001.jpg,6.97649924124426,7.50592439487446,9.48241639118305,NaN,0,1,,,,
509,1,2,2490.jpg,9.49415016758439,10.0119061454861,10.2706327454775,NaN,1,1,,,,
510,1,2,4571.jpg,10.2824407824651,10.7998263630516,11.8000732945952,NaN,1,1,,,,
511,1,2,4571.jpg,11.8118161271655,12.4589446121681,14.5295555624652,NaN,0,1,,,,
512,1,2,9561.jpg,14.5412470767442,15.0586752213253,16.5530258321187,NaN,1,1,,,,
513,1,2,9390.jpg,16.564800361281,17.0822170347146,17.7413026816225,NaN,1,1,,,,
514,1,2,2720.jpg,17.7530696639769,18.2707064023193,19.9648288580261,NaN,1,1,,,,
515,1,2,2720.jpg,19.976599764721,20.5060197865223,22.1883876366387,NaN,0,1,,,,
516,1,2,4561.jpg,22.2001334879324,22.7177949798033,23.5177749958571,NaN,1,1,,,,
517,1,2,9000.jpg,23.5295380538719,24.0471950176579,25.4119065681075,NaN,1,1,,,,
518,1,2,7234.jpg,25.4236777766746,25.9414210759396,26.2001612601844,NaN,1,1,,,,
519,1,2,5120.jpg,26.2119469586214,26.7295846025809,28.0237084469004,NaN,1,1,,,,
520,1,2,8465.jpg,28.0354699955537,28.5531245443617,30.9649133822709,NaN,1,1,,,,
521,1,2,9700.jpg,30.9766622522875,31.5178537845281,33.6707991978651,NaN,1,1,,,,
522,1,2,9042.jpg,33.6825643689858,34.1999722881228,34.7061381808394,NaN,1,1,,,,
523,1,2,4635.jpg,34.71786924039,35.2352741408035,36.259046584632,NaN,1,1,,,,
524,1,2,9101.jpg,36.2708159819649,36.7882389947172,38.6943666704001,NaN,1,1,,,,
525,1,2,2221.jpg,38.717866221667,39.2355440146421,40.2472898659357,NaN,1,1,,,,
526,1,2,7920.jpg,40.2590731493947,40.7767606022835,42.9532333391394,NaN,1,1,,,,
527,1,2,1945.jpg,42.9649755679652,43.5179144608605,44.2826382069511,NaN,1,1,,,,
528,1,2,9331.jpg,44.2941956899276,44.8120286452668,45.1062065247284,NaN,1,1,,,,
529,1,2,7700.jpg,45.1179312449608,45.6353391640978,46.3532364786115,NaN,1,1,,,,
530,1,2,7920.jpg,46.3650194601983,46.8824116819751,47.988521909439,NaN,1,1,,,,
531,1,2,7920.jpg,48.0002940236227,48.5297052911274,49.0355967819205,NaN,0,1,48.1885796274232,,,
532,1,2,5120.jpg,49.0473691979769,49.5650391422723,51.788584034759,NaN,1,1,,,,
533,1,2,8465.jpg,51.8003380366044,52.3179654169053,54.5179697034923,NaN,1,1,,,,
534,1,2,2221.jpg,54.5297327615067,55.0471521517911,56.6471601815942,NaN,1,1,,,,
535,1,2,4571.jpg,56.6589247489705,57.1768881131443,59.270712137893,NaN,1,1,,,,
536,1,2,9101.jpg,-1.42378403572502,-0.906126166321428,0.693875524163559,NaN,1,1,,,60.7060925981214,
537,1,2,1945.jpg,0.705642204645756,1.22331063957972,2.02329940993013,NaN,1,1,,,,
538,1,2,9042.jpg,2.03506216607275,2.55272728041109,2.99977721824052,NaN,1,1,,,,
539,1,2,9390.jpg,3.01153906876607,3.52921927672014,4.56476202349813,NaN,1,1,,,,
540,1,2,4561.jpg,4.57652689274664,5.09416031049386,5.38833849182765,NaN,1,1,,,,
541,1,2,7700.jpg,5.40002668551142,5.91746056566626,6.22333569498096,NaN,1,1,,,,
542,1,2,4320.jpg,6.23508788559275,6.75275511303744,8.44686760695868,NaN,1,1,,,,
543,1,2,9700.jpg,8.45863277807939,8.97628974186591,10.670407367616,NaN,1,1,,,,
544,1,2,9000.jpg,10.682215404604,11.1998313137574,12.235176937922,NaN,1,1,,,,
545,1,2,9331.jpg,12.2469182611312,12.788105265287,14.7294976633575,NaN,1,1,,,,
546,1,2,9331.jpg,14.7413029834947,15.2589342881352,16.8589420160661,NaN,0,1,,,,
547,1,2,2490.jpg,16.8706863579982,17.388130199939,19.3881132950901,NaN,1,1,,,,
548,1,2,9001.jpg,19.3998760512327,19.917534222508,20.8116519086329,NaN,1,1,,,,
549,1,2,4635.jpg,20.8234143629029,21.3410855146876,21.5410677645964,NaN,1,1,,,,
550,1,2,9561.jpg,21.5528573873735,22.0704889938866,24.0705001631618,NaN,1,1,,,,
551,1,2,2720.jpg,24.0822608061981,24.5999250149202,25.0940320147652,NaN,1,1,,,,
552,1,2,7234.jpg,25.1057962802693,25.6234656208198,27.0234560816552,NaN,1,1,,,,
553,1,2,9360.jpg,27.0352607980476,27.5528824427747,29.352880269294,NaN,1,1,,,,
